AccX,Accy,AccZ,GyroX,GyroY,GyroZ,MAGyroX,MAGyroY,MAGyroZ,Gyro_minus_MAGyroX,Gyro_minus_MAGyroY,Gyro_minus_MAGyroZ,AADX,AADY,AADZ,AADM,Categorie
0.05000,-0.12000,0.94000,-100.55000,-3.90000,-5.60000,-100.70000,-4.40000,-5.39000,0.15000,0.50000,-0.21000,1.00000,0.00000,0.00000,1.00000,0
0.05000,-0.11000,0.93000,-100.60000,-4.25000,-5.10000,-100.73000,-4.39000,-5.40000,0.13000,0.14000,0.30000,1.00000,0.00000,0.00000,1.00000,0
0.05000,-0.12000,0.94000,-100.80000,-4.75000,-4.60000,-100.61000,-4.33000,-5.35000,-0.19000,-0.42000,0.75000,0.00000,0.00000,0.00000,0.00000,0
0.05000,-0.11000,0.94000,-101.10000,-3.55000,-5.45000,-100.69000,-4.29000,-5.30000,-0.41000,0.74000,-0.15000,0.00000,0.00000,0.00000,0.00000,0
0.05000,-0.12000,0.94000,-99.95000,-4.55000,-5.35000,-100.70000,-4.28000,-5.23000,0.75000,-0.28000,-0.12000,0.00000,0.00000,0.00000,0.00000,0
0.05000,-0.11000,0.94000,-99.05000,-4.10000,-5.10000,-100.46000,-4.27000,-5.23000,1.41000,0.17000,0.13000,2.00000,0.00000,0.00000,2.00000,0
0.05000,-0.11000,0.94000,-101.90000,-5.05000,-4.75000,-100.49000,-4.34000,-5.18000,-1.41000,-0.72000,0.43000,2.00000,0.00000,0.00000,2.00000,0
0.05000,-0.12000,0.94000,-100.50000,-4.25000,-5.30000,-100.50000,-4.34000,-5.25000,0.00000,0.09000,-0.05000,2.00000,0.00000,0.00000,2.00000,0
0.04000,-0.11000,0.94000,-99.10000,-3.50000,-5.55000,-100.42000,-4.28000,-5.26000,1.32000,0.78000,-0.29000,3.00000,0.00000,0.00000,3.00000,0
0.05000,-0.11000,0.94000,-99.75000,-3.90000,-6.20000,-100.33000,-4.18000,-5.30000,0.58000,0.28000,-0.90000,3.00000,0.00000,0.00000,3.00000,0
0.05000,-0.12000,0.94000,-100.00000,-4.70000,-5.70000,-100.28000,-4.26000,-5.31000,0.28000,-0.44000,-0.39000,3.00000,0.00000,0.00000,3.00000,0
0.05000,-0.12000,0.94000,-99.40000,-4.10000,-5.65000,-100.15000,-4.24000,-5.37000,0.75000,0.14000,-0.28000,3.00000,0.00000,0.00000,3.00000,0
0.05000,-0.12000,0.94000,-100.00000,-4.45000,-7.10000,-100.07000,-4.21000,-5.62000,0.07000,-0.24000,-1.48000,3.00000,0.00000,1.00000,3.16000,0
0.04000,-0.12000,0.94000,-100.65000,-3.15000,-4.75000,-100.03000,-4.18000,-5.55000,-0.62000,1.03000,0.80000,1.00000,1.00000,1.00000,1.73000,0
0.04000,-0.11000,0.95000,-100.65000,-4.50000,-5.75000,-100.10000,-4.17000,-5.59000,-0.55000,-0.33000,-0.16000,3.00000,1.00000,1.00000,3.32000,0
0.05000,-0.11000,0.94000,-100.65000,-4.00000,-5.25000,-100.26000,-4.16000,-5.60000,-0.39000,0.16000,0.35000,2.00000,1.00000,1.00000,2.45000,0
0.05000,-0.12000,0.94000,-101.85000,-4.45000,-5.20000,-100.26000,-4.10000,-5.64000,-1.59000,-0.35000,0.45000,2.00000,0.00000,1.00000,2.24000,0
0.05000,-0.11000,0.94000,-99.30000,-4.10000,-5.05000,-100.14000,-4.09000,-5.62000,0.83000,-0.01000,0.57000,2.00000,0.00000,1.00000,2.24000,0
0.05000,-0.11000,0.93000,-100.80000,-4.35000,-5.80000,-100.31000,-4.17000,-5.64000,-0.50000,-0.18000,-0.16000,2.00000,1.00000,1.00000,2.45000,0
0.05000,-0.12000,0.94000,-101.80000,-4.45000,-5.35000,-100.51000,-4.22000,-5.56000,-1.29000,-0.23000,0.21000,4.00000,1.00000,1.00000,4.24000,0
0.05000,-0.12000,0.95000,-101.60000,-3.60000,-4.80000,-100.67000,-4.11000,-5.47000,-0.93000,0.51000,0.67000,4.00000,0.00000,1.00000,4.12000,0
0.05000,-0.12000,0.95000,-99.05000,-4.15000,-6.20000,-100.63000,-4.12000,-5.52000,1.58000,-0.03000,-0.68000,4.00000,0.00000,1.00000,4.12000,0
0.05000,-0.12000,0.94000,-100.35000,-5.05000,-5.70000,-100.67000,-4.18000,-5.38000,0.32000,-0.87000,-0.32000,4.00000,1.00000,0.00000,4.12000,0
0.05000,-0.12000,0.94000,-101.10000,-3.60000,-5.80000,-100.71000,-4.22000,-5.49000,-0.39000,0.62000,-0.31000,4.00000,0.00000,0.00000,4.00000,0
0.06000,-0.11000,0.94000,-100.75000,-4.85000,-4.95000,-100.72000,-4.26000,-5.41000,-0.03000,-0.59000,0.46000,4.00000,0.00000,0.00000,4.00000,0
0.05000,-0.11000,0.94000,-98.95000,-4.60000,-5.55000,-100.56000,-4.32000,-5.44000,1.61000,-0.28000,-0.11000,6.00000,0.00000,0.00000,6.00000,0
0.06000,-0.11000,0.94000,-101.40000,-3.95000,-6.65000,-100.51000,-4.27000,-5.59000,-0.89000,0.32000,-1.07000,5.00000,0.00000,1.00000,5.10000,0
0.05000,-0.12000,0.95000,-99.80000,-3.75000,-5.10000,-100.56000,-4.23000,-5.59000,0.76000,0.48000,0.49000,4.00000,0.00000,1.00000,4.12000,0
0.05000,-0.11000,0.94000,-98.95000,-3.95000,-6.30000,-100.38000,-4.20000,-5.64000,1.43000,0.25000,-0.66000,6.00000,0.00000,1.00000,6.08000,0
0.05000,-0.12000,0.94000,-100.95000,-3.45000,-5.65000,-100.29000,-4.10000,-5.67000,-0.66000,0.65000,0.02000,5.00000,0.00000,0.00000,5.00000,0
0.05000,-0.12000,0.94000,-100.70000,-3.35000,-5.80000,-100.20000,-4.07000,-5.77000,-0.50000,0.72000,-0.03000,4.00000,0.00000,0.00000,4.00000,0
0.05000,-0.11000,0.94000,-99.45000,-4.50000,-6.50000,-100.24000,-4.11000,-5.80000,0.79000,-0.39000,-0.70000,3.00000,0.00000,0.00000,3.00000,0
0.05000,-0.12000,0.94000,-100.70000,-3.90000,-5.20000,-100.28000,-3.99000,-5.75000,-0.42000,0.09000,0.55000,3.00000,0.00000,0.00000,3.00000,0
0.05000,-0.11000,0.94000,-101.00000,-3.85000,-5.80000,-100.27000,-4.02000,-5.75000,-0.73000,0.17000,-0.05000,3.00000,0.00000,0.00000,3.00000,0
0.05000,-0.12000,0.94000,-100.25000,-3.90000,-5.60000,-100.22000,-3.92000,-5.82000,-0.03000,0.02000,0.22000,3.00000,0.00000,0.00000,3.00000,0
0.05000,-0.12000,0.94000,-101.20000,-4.80000,-5.50000,-100.44000,-3.94000,-5.81000,-0.76000,-0.86000,0.31000,1.00000,0.00000,0.00000,1.00000,0
0.05000,-0.11000,0.94000,-99.40000,-4.30000,-5.10000,-100.24000,-3.97000,-5.65000,0.84000,-0.33000,0.55000,1.00000,0.00000,0.00000,1.00000,0
0.05000,-0.11000,0.93000,-98.75000,-4.45000,-3.95000,-100.14000,-4.05000,-5.54000,1.39000,-0.40000,1.59000,3.00000,0.00000,1.00000,3.16000,0
0.05000,-0.12000,0.93000,-101.15000,-4.15000,-4.70000,-100.36000,-4.07000,-5.38000,-0.79000,-0.09000,0.68000,1.00000,0.00000,2.00000,2.24000,0
0.05000,-0.12000,0.94000,-102.15000,-3.80000,-5.05000,-100.48000,-4.10000,-5.32000,-1.67000,0.30000,0.27000,4.00000,0.00000,2.00000,4.47000,0
0.05000,-0.12000,0.94000,-100.90000,-5.00000,-5.70000,-100.50000,-4.27000,-5.31000,-0.40000,-0.73000,-0.39000,4.00000,0.00000,2.00000,4.47000,0
0.05000,-0.12000,0.94000,-99.00000,-3.60000,-4.85000,-100.45000,-4.18000,-5.14000,1.45000,0.58000,0.30000,4.00000,0.00000,1.00000,4.12000,0
0.06000,-0.11000,0.94000,-100.95000,-3.75000,-4.90000,-100.48000,-4.16000,-5.12000,-0.47000,0.41000,0.22000,4.00000,0.00000,1.00000,4.12000,0
0.05000,-0.11000,0.94000,-100.80000,-4.05000,-6.25000,-100.46000,-4.18000,-5.16000,-0.35000,0.13000,-1.09000,4.00000,0.00000,2.00000,4.47000,0
0.05000,-0.11000,0.94000,-100.75000,-4.60000,-5.10000,-100.50000,-4.25000,-5.11000,-0.25000,-0.35000,0.01000,4.00000,0.00000,2.00000,4.47000,0
0.05000,-0.11000,0.94000,-100.50000,-5.25000,-5.20000,-100.43000,-4.29000,-5.08000,-0.07000,-0.96000,-0.12000,4.00000,0.00000,2.00000,4.47000,0
0.05000,-0.12000,0.93000,-100.85000,-4.75000,-5.45000,-100.58000,-4.34000,-5.12000,-0.27000,-0.41000,-0.33000,3.00000,0.00000,2.00000,3.61000,0
0.05000,-0.11000,0.94000,-99.75000,-4.60000,-4.80000,-100.68000,-4.35000,-5.20000,0.93000,-0.25000,0.40000,2.00000,0.00000,1.00000,2.24000,0
0.05000,-0.11000,0.94000,-100.75000,-3.40000,-4.25000,-100.64000,-4.28000,-5.15000,-0.11000,0.88000,0.90000,2.00000,0.00000,1.00000,2.24000,0
0.05000,-0.12000,0.94000,-101.50000,-3.20000,-6.05000,-100.57000,-4.22000,-5.26000,-0.93000,1.02000,-0.80000,1.00000,2.00000,1.00000,2.45000,0
0.05000,-0.12000,0.94000,-99.00000,-3.95000,-5.90000,-100.38000,-4.12000,-5.28000,1.38000,0.17000,-0.62000,3.00000,1.00000,1.00000,3.32000,0
0.05000,-0.11000,0.95000,-99.05000,-4.85000,-6.05000,-100.39000,-4.24000,-5.39000,1.34000,-0.61000,-0.66000,3.00000,2.00000,1.00000,3.74000,0
0.05000,-0.11000,0.94000,-100.80000,-3.25000,-5.30000,-100.37000,-4.19000,-5.43000,-0.43000,0.94000,0.13000,3.00000,1.00000,1.00000,3.32000,0
0.05000,-0.12000,0.94000,-102.10000,-3.80000,-5.60000,-100.50000,-4.16000,-5.37000,-1.60000,0.37000,-0.23000,3.00000,1.00000,1.00000,3.32000,0
0.05000,-0.11000,0.94000,-99.35000,-4.45000,-4.95000,-100.36000,-4.15000,-5.36000,1.01000,-0.30000,0.41000,5.00000,1.00000,1.00000,5.20000,0
0.05000,-0.11000,0.94000,-99.45000,-5.30000,-5.35000,-100.26000,-4.15000,-5.37000,0.81000,-1.15000,0.02000,4.00000,1.00000,1.00000,4.24000,0
0.05000,-0.12000,0.93000,-100.75000,-4.05000,-5.55000,-100.25000,-4.09000,-5.38000,-0.50000,0.03000,-0.17000,4.00000,1.00000,1.00000,4.24000,0
0.04000,-0.11000,0.94000,-98.50000,-4.00000,-5.35000,-100.12000,-4.02000,-5.43000,1.62000,0.02000,0.08000,5.00000,1.00000,1.00000,5.20000,0
0.05000,-0.12000,0.94000,-100.55000,-3.65000,-5.25000,-100.10000,-4.05000,-5.53000,-0.45000,0.40000,0.28000,5.00000,1.00000,0.00000,5.10000,0
0.05000,-0.12000,0.94000,-102.10000,-2.70000,-5.40000,-100.16000,-4.00000,-5.47000,-1.94000,1.30000,0.07000,5.00000,2.00000,0.00000,5.39000,0
0.05000,-0.12000,0.94000,-98.00000,-5.05000,-4.35000,-100.06000,-4.11000,-5.32000,2.06000,-0.94000,0.97000,8.00000,2.00000,0.00000,8.25000,0
0.05000,-0.11000,0.93000,-98.95000,-4.10000,-4.80000,-100.06000,-4.03000,-5.19000,1.11000,-0.07000,0.39000,8.00000,3.00000,0.00000,8.54000,0
0.05000,-0.12000,0.95000,-102.65000,-3.05000,-4.55000,-100.24000,-4.01000,-5.12000,-2.41000,0.96000,0.57000,8.00000,3.00000,0.00000,8.54000,0
0.05000,-0.12000,0.94000,-100.45000,-2.95000,-5.80000,-100.07000,-3.93000,-5.13000,-0.37000,0.98000,-0.67000,8.00000,3.00000,0.00000,8.54000,0
0.05000,-0.12000,0.94000,-97.80000,-4.55000,-5.20000,-99.92000,-3.94000,-5.16000,2.12000,-0.61000,-0.04000,8.00000,3.00000,0.00000,8.54000,0
0.05000,-0.12000,0.93000,-100.50000,-5.45000,-5.15000,-100.03000,-3.96000,-5.14000,-0.47000,-1.49000,-0.01000,10.00000,4.00000,0.00000,10.77000,0
0.04000,-0.11000,0.94000,-102.50000,-3.85000,-3.85000,-100.20000,-3.93000,-4.97000,-2.30000,0.09000,1.12000,11.00000,3.00000,1.00000,11.45000,0
0.05000,-0.11000,0.93000,-100.35000,-5.65000,-4.95000,-100.38000,-4.10000,-4.93000,0.03000,-1.55000,-0.02000,10.00000,5.00000,1.00000,11.22000,0
0.06000,-0.12000,0.93000,-100.95000,-4.40000,-6.40000,-100.42000,-4.18000,-5.05000,-0.53000,-0.22000,-1.35000,10.00000,5.00000,2.00000,11.36000,0
0.05000,-0.12000,0.94000,-101.50000,-4.50000,-5.20000,-100.36000,-4.36000,-5.03000,-1.14000,-0.14000,-0.17000,10.00000,4.00000,2.00000,10.95000,0
0.05000,-0.11000,0.95000,-99.50000,-4.65000,-5.75000,-100.51000,-4.32000,-5.16000,1.01000,-0.34000,-0.59000,7.00000,4.00000,2.00000,8.31000,0
0.05000,-0.11000,0.95000,-101.40000,-4.35000,-4.85000,-100.76000,-4.34000,-5.17000,-0.64000,-0.01000,0.32000,5.00000,4.00000,2.00000,6.71000,0
0.04000,-0.12000,0.94000,-101.90000,-4.80000,-5.30000,-100.69000,-4.51000,-5.24000,-1.21000,-0.29000,-0.06000,5.00000,2.00000,2.00000,5.74000,0
0.05000,-0.12000,0.94000,-99.95000,-4.80000,-5.75000,-100.64000,-4.70000,-5.24000,0.69000,-0.10000,-0.51000,5.00000,0.00000,2.00000,5.39000,0
0.05000,-0.11000,0.94000,-99.75000,-3.75000,-5.60000,-100.83000,-4.62000,-5.28000,1.08000,0.87000,-0.32000,4.00000,1.00000,2.00000,4.58000,0
0.05000,-0.11000,0.94000,-103.10000,-3.30000,-4.50000,-101.09000,-4.40000,-5.21000,-2.01000,1.10000,0.71000,6.00000,2.00000,2.00000,6.63000,0
0.05000,-0.12000,0.95000,-100.05000,-3.80000,-4.70000,-100.84000,-4.40000,-5.30000,0.79000,0.60000,0.60000,5.00000,2.00000,1.00000,5.48000,0
0.05000,-0.11000,0.94000,-98.80000,-4.55000,-5.25000,-100.69000,-4.29000,-5.33000,1.89000,-0.26000,0.08000,5.00000,0.00000,1.00000,5.10000,0
0.05000,-0.12000,0.94000,-101.25000,-3.75000,-4.50000,-100.72000,-4.22000,-5.14000,-0.53000,0.47000,0.64000,5.00000,0.00000,0.00000,5.00000,0
0.04000,-0.12000,0.95000,-101.65000,-2.95000,-6.15000,-100.74000,-4.07000,-5.24000,-0.92000,1.12000,-0.91000,5.00000,1.00000,0.00000,5.10000,0
0.05000,-0.11000,0.94000,-98.55000,-4.55000,-4.75000,-100.64000,-4.06000,-5.14000,2.09000,-0.49000,0.39000,7.00000,1.00000,1.00000,7.14000,0
0.04000,-0.11000,0.94000,-99.75000,-3.85000,-5.40000,-100.47000,-4.01000,-5.19000,0.72000,0.16000,-0.21000,6.00000,1.00000,0.00000,6.08000,0
0.04000,-0.11000,0.95000,-101.45000,-4.45000,-5.50000,-100.43000,-3.97000,-5.21000,-1.02000,-0.47000,-0.29000,6.00000,1.00000,0.00000,6.08000,0
0.05000,-0.12000,0.94000,-101.05000,-4.15000,-5.45000,-100.54000,-3.91000,-5.18000,-0.51000,-0.24000,-0.27000,5.00000,0.00000,0.00000,5.00000,0
0.05000,-0.12000,0.94000,-99.40000,-4.15000,-5.65000,-100.51000,-3.95000,-5.19000,1.11000,-0.20000,-0.46000,6.00000,1.00000,0.00000,6.08000,0
0.05000,-0.12000,0.94000,-100.25000,-3.90000,-5.90000,-100.22000,-4.01000,-5.33000,-0.03000,0.11000,-0.57000,5.00000,1.00000,0.00000,5.10000,0
0.05000,-0.11000,0.94000,-100.70000,-3.80000,-4.80000,-100.29000,-4.01000,-5.34000,-0.41000,0.21000,0.53000,4.00000,1.00000,0.00000,4.12000,0
0.05000,-0.12000,0.94000,-100.10000,-4.05000,-5.65000,-100.42000,-3.96000,-5.38000,0.32000,-0.09000,-0.27000,4.00000,1.00000,0.00000,4.12000,0
0.05000,-0.11000,0.95000,-101.30000,-3.25000,-4.70000,-100.42000,-3.91000,-5.40000,-0.88000,0.66000,0.70000,4.00000,0.00000,0.00000,4.00000,0
0.04000,-0.12000,0.95000,-99.75000,-4.15000,-4.85000,-100.23000,-4.03000,-5.26000,0.48000,-0.12000,0.41000,3.00000,0.00000,0.00000,3.00000,0
0.05000,-0.12000,0.94000,-100.60000,-4.50000,-5.70000,-100.43000,-4.03000,-5.36000,-0.17000,-0.47000,-0.34000,2.00000,0.00000,0.00000,2.00000,0
0.05000,-0.11000,0.94000,-100.75000,-4.65000,-5.75000,-100.53000,-4.11000,-5.39000,-0.22000,-0.54000,-0.36000,1.00000,0.00000,0.00000,1.00000,0
0.05000,-0.12000,0.93000,-100.55000,-4.10000,-5.50000,-100.44000,-4.07000,-5.39000,-0.11000,-0.03000,-0.11000,1.00000,0.00000,0.00000,1.00000,0
0.05000,-0.12000,0.94000,-100.10000,-3.45000,-4.65000,-100.35000,-4.00000,-5.32000,0.25000,0.55000,0.66000,0.00000,0.00000,0.00000,0.00000,0
0.05000,-0.11000,0.93000,-101.00000,-5.15000,-6.10000,-100.51000,-4.10000,-5.36000,-0.49000,-1.05000,-0.74000,0.00000,1.00000,0.00000,1.00000,0
0.04000,-0.11000,0.94000,-98.60000,-3.65000,-4.30000,-100.34000,-4.08000,-5.20000,1.74000,0.43000,0.90000,1.00000,1.00000,0.00000,1.41000,0
0.05000,-0.12000,0.95000,-98.75000,-3.75000,-5.50000,-100.15000,-4.07000,-5.27000,1.40000,0.32000,-0.23000,3.00000,1.00000,0.00000,3.16000,0
0.06000,-0.12000,0.94000,-101.85000,-4.05000,-5.75000,-100.32000,-4.07000,-5.28000,-1.53000,0.02000,-0.47000,3.00000,1.00000,0.00000,3.16000,0
0.05000,-0.11000,0.94000,-101.15000,-3.90000,-4.50000,-100.31000,-4.14000,-5.26000,-0.84000,0.24000,0.76000,3.00000,1.00000,0.00000,3.16000,0
0.05000,-0.11000,0.94000,-98.95000,-6.00000,-5.05000,-100.23000,-4.32000,-5.28000,1.28000,-1.68000,0.23000,4.00000,1.00000,0.00000,4.12000,0
0.05000,-0.12000,0.94000,-100.10000,-4.15000,-5.00000,-100.18000,-4.29000,-5.21000,0.08000,0.14000,0.21000,4.00000,1.00000,0.00000,4.12000,0
0.05000,-0.11000,0.94000,-102.20000,-3.85000,-4.30000,-100.32000,-4.21000,-5.06000,-1.87000,0.36000,0.76000,5.00000,1.00000,1.00000,5.20000,0
0.06000,-0.11000,0.94000,-98.55000,-3.65000,-4.85000,-100.12000,-4.16000,-5.00000,1.57000,0.51000,0.15000,8.00000,1.00000,1.00000,8.12000,0
0.05000,-0.12000,0.94000,-100.00000,-4.10000,-5.75000,-100.11000,-4.22000,-5.11000,0.11000,0.13000,-0.64000,8.00000,1.00000,0.00000,8.06000,0
0.05000,-0.12000,0.96000,-101.45000,-4.30000,-5.90000,-100.16000,-4.14000,-5.09000,-1.29000,-0.16000,-0.81000,8.00000,1.00000,0.00000,8.06000,0
0.05000,-0.12000,0.93000,-99.65000,-4.15000,-5.45000,-100.26000,-4.19000,-5.20000,0.61000,0.04000,-0.24000,6.00000,1.00000,0.00000,6.08000,0
0.04000,-0.12000,0.94000,-100.05000,-4.40000,-5.15000,-100.40000,-4.26000,-5.17000,0.35000,-0.14000,0.02000,5.00000,1.00000,0.00000,5.10000,0
0.05000,-0.11000,0.95000,-100.90000,-3.40000,-4.75000,-100.30000,-4.19000,-5.07000,-0.60000,0.79000,0.32000,4.00000,1.00000,0.00000,4.12000,0
0.05000,-0.12000,0.94000,-99.95000,-4.05000,-4.65000,-100.18000,-4.20000,-5.09000,0.23000,0.15000,0.43000,5.00000,1.00000,0.00000,5.10000,0
0.05000,-0.11000,0.94000,-97.85000,-3.65000,-5.50000,-100.07000,-3.97000,-5.13000,2.22000,0.32000,-0.37000,6.00000,0.00000,0.00000,6.00000,0
0.05000,-0.11000,0.94000,-101.30000,-4.40000,-5.55000,-100.19000,-4.00000,-5.19000,-1.11000,-0.40000,-0.36000,7.00000,0.00000,0.00000,7.00000,0
0.05000,-0.11000,0.94000,-101.65000,-3.70000,-5.65000,-100.14000,-3.98000,-5.32000,-1.51000,0.28000,-0.33000,6.00000,0.00000,0.00000,6.00000,0
0.05000,-0.12000,0.94000,-99.50000,-4.35000,-4.40000,-100.23000,-4.05000,-5.28000,0.73000,-0.30000,0.88000,5.00000,0.00000,0.00000,5.00000,0
0.05000,-0.12000,0.94000,-100.45000,-4.30000,-4.25000,-100.28000,-4.07000,-5.13000,-0.17000,-0.23000,0.88000,5.00000,0.00000,0.00000,5.00000,0
0.05000,-0.12000,0.94000,-101.20000,-3.55000,-5.35000,-100.25000,-3.99000,-5.07000,-0.95000,0.44000,-0.28000,4.00000,0.00000,0.00000,4.00000,0
0.05000,-0.11000,0.95000,-100.80000,-3.15000,-5.05000,-100.37000,-3.89000,-5.03000,-0.43000,0.74000,-0.02000,3.00000,0.00000,0.00000,3.00000,0
0.05000,-0.12000,0.94000,-99.90000,-3.70000,-5.05000,-100.35000,-3.83000,-5.02000,0.45000,0.13000,-0.03000,3.00000,0.00000,0.00000,3.00000,0
0.05000,-0.12000,0.95000,-100.90000,-4.75000,-5.40000,-100.35000,-3.96000,-5.09000,-0.55000,-0.79000,-0.32000,3.00000,0.00000,0.00000,3.00000,0
0.05000,-0.11000,0.93000,-100.15000,-4.70000,-5.15000,-100.37000,-4.03000,-5.14000,0.22000,-0.67000,-0.01000,3.00000,0.00000,0.00000,3.00000,0
0.05000,-0.11000,0.94000,-101.20000,-2.75000,-4.80000,-100.71000,-3.93000,-5.07000,-0.49000,1.18000,0.26000,1.00000,1.00000,0.00000,1.41000,0
0.06000,-0.12000,0.94000,-101.25000,-4.70000,-5.60000,-100.70000,-3.97000,-5.07000,-0.55000,-0.73000,-0.53000,1.00000,1.00000,0.00000,1.41000,0
0.04000,-0.11000,0.94000,-99.85000,-3.50000,-6.15000,-100.52000,-3.95000,-5.12000,0.67000,0.45000,-1.03000,1.00000,1.00000,1.00000,1.73000,0
0.05000,-0.11000,0.94000,-101.05000,-3.90000,-6.80000,-100.68000,-3.90000,-5.36000,-0.37000,0.00000,-1.44000,0.00000,1.00000,2.00000,2.24000,0
0.05000,-0.12000,0.94000,-99.45000,-3.55000,-4.95000,-100.57000,-3.83000,-5.43000,1.12000,0.28000,0.48000,1.00000,1.00000,1.00000,1.73000,0
0.05000,-0.11000,0.94000,-101.40000,-3.20000,-4.85000,-100.60000,-3.79000,-5.38000,-0.81000,0.59000,0.53000,1.00000,1.00000,1.00000,1.73000,0
0.05000,-0.12000,0.94000,-101.80000,-4.85000,-5.55000,-100.69000,-3.96000,-5.43000,-1.11000,-0.89000,-0.12000,2.00000,1.00000,1.00000,2.45000,0
0.05000,-0.11000,0.93000,-99.20000,-4.20000,-4.80000,-100.63000,-4.01000,-5.40000,1.43000,-0.19000,0.60000,3.00000,1.00000,1.00000,3.32000,0
0.05000,-0.12000,0.95000,-97.65000,-5.30000,-6.55000,-100.30000,-4.06000,-5.52000,2.65000,-1.24000,-1.03000,5.00000,2.00000,2.00000,5.74000,0
0.05000,-0.11000,0.93000,-102.60000,-3.00000,-5.05000,-100.54000,-3.89000,-5.51000,-2.06000,0.89000,0.46000,7.00000,2.00000,2.00000,7.55000,0
0.05000,-0.12000,0.94000,-102.20000,-3.75000,-6.25000,-100.65000,-4.00000,-5.65000,-1.55000,0.25000,-0.60000,7.00000,1.00000,1.00000,7.14000,0
0.05000,-0.11000,0.94000,-97.50000,-4.70000,-5.45000,-100.27000,-4.00000,-5.64000,2.77000,-0.70000,0.19000,10.00000,1.00000,1.00000,10.10000,0
0.05000,-0.11000,0.94000,-98.70000,-5.05000,-6.55000,-100.16000,-4.15000,-5.68000,1.46000,-0.90000,-0.87000,11.00000,2.00000,1.00000,11.22000,0
0.05000,-0.12000,0.94000,-101.95000,-4.05000,-5.25000,-100.25000,-4.16000,-5.53000,-1.70000,0.11000,0.28000,12.00000,2.00000,2.00000,12.33000,0
0.05000,-0.11000,0.93000,-101.75000,-4.40000,-4.85000,-100.48000,-4.25000,-5.51000,-1.27000,-0.15000,0.66000,12.00000,3.00000,2.00000,12.53000,0
0.05000,-0.12000,0.94000,-101.45000,-4.70000,-5.05000,-100.48000,-4.40000,-5.53000,-0.97000,-0.30000,0.48000,12.00000,1.00000,2.00000,12.21000,0
0.05000,-0.11000,0.94000,-99.95000,-5.00000,-4.80000,-100.30000,-4.41000,-5.46000,0.35000,-0.59000,0.66000,12.00000,1.00000,2.00000,12.21000,0
0.05000,-0.11000,0.94000,-97.20000,-3.45000,-5.75000,-100.10000,-4.34000,-5.55000,2.90000,0.89000,-0.20000,14.00000,1.00000,0.00000,14.04000,0
0.05000,-0.11000,0.94000,-99.60000,-4.65000,-5.70000,-100.29000,-4.28000,-5.47000,0.69000,-0.37000,-0.23000,12.00000,1.00000,1.00000,12.08000,0
0.05000,-0.12000,0.94000,-105.00000,-2.95000,-5.60000,-100.53000,-4.27000,-5.53000,-4.47000,1.32000,-0.07000,14.00000,1.00000,1.00000,14.07000,0
0.05000,-0.11000,0.94000,-100.40000,-2.90000,-5.80000,-100.35000,-4.19000,-5.48000,-0.05000,1.29000,-0.32000,13.00000,2.00000,1.00000,13.19000,0
0.05000,-0.11000,0.94000,-96.05000,-4.80000,-5.75000,-100.21000,-4.20000,-5.51000,4.15000,-0.61000,-0.24000,15.00000,2.00000,1.00000,15.17000,0
0.05000,-0.12000,0.94000,-99.95000,-3.95000,-5.00000,-100.33000,-4.09000,-5.36000,0.38000,0.13000,0.36000,14.00000,2.00000,0.00000,14.14000,0
0.05000,-0.12000,0.93000,-104.10000,-2.60000,-4.30000,-100.54000,-3.94000,-5.26000,-3.56000,1.34000,0.96000,15.00000,3.00000,0.00000,15.30000,0
0.05000,-0.12000,0.94000,-100.20000,-4.50000,-5.15000,-100.39000,-3.95000,-5.29000,0.19000,-0.55000,0.14000,15.00000,4.00000,0.00000,15.52000,0
0.04000,-0.12000,0.93000,-98.60000,-4.20000,-5.25000,-100.10000,-3.90000,-5.31000,1.50000,-0.30000,0.06000,14.00000,3.00000,1.00000,14.35000,0
0.05000,-0.11000,0.94000,-98.50000,-4.90000,-6.00000,-99.96000,-3.89000,-5.43000,1.46000,-1.01000,-0.57000,16.00000,2.00000,1.00000,16.16000,0
0.05000,-0.11000,0.94000,-100.15000,-3.45000,-4.50000,-100.25000,-3.89000,-5.30000,0.10000,0.44000,0.80000,13.00000,2.00000,1.00000,13.19000,0
0.05000,-0.12000,0.94000,-103.35000,-3.75000,-4.50000,-100.63000,-3.80000,-5.18000,-2.72000,0.05000,0.68000,17.00000,3.00000,0.00000,17.26000,0
0.05000,-0.11000,0.94000,-101.25000,-4.60000,-5.50000,-100.25000,-3.97000,-5.18000,-1.00000,-0.63000,-0.32000,12.00000,2.00000,0.00000,12.17000,0
0.05000,-0.12000,0.95000,-96.20000,-6.35000,-5.90000,-99.84000,-4.31000,-5.19000,3.64000,-2.04000,-0.71000,16.00000,3.00000,0.00000,16.28000,0
0.05000,-0.11000,0.94000,-98.65000,-4.50000,-5.80000,-100.10000,-4.28000,-5.19000,1.44000,-0.22000,-0.61000,14.00000,3.00000,0.00000,14.32000,0
0.04000,-0.12000,0.94000,-105.55000,-2.85000,-5.05000,-100.65000,-4.17000,-5.20000,-4.90000,1.32000,0.14000,19.00000,4.00000,0.00000,19.42000,0
0.05000,-0.12000,0.93000,-101.80000,-4.80000,-5.55000,-100.43000,-4.39000,-5.32000,-1.37000,-0.41000,-0.23000,15.00000,2.00000,0.00000,15.13000,0
0.04000,-0.12000,0.94000,-95.60000,-5.10000,-5.20000,-99.96000,-4.45000,-5.32000,4.36000,-0.65000,0.13000,20.00000,2.00000,0.00000,20.10000,0
0.05000,-0.11000,0.94000,-98.75000,-5.50000,-5.10000,-99.98000,-4.58000,-5.31000,1.23000,-0.92000,0.21000,20.00000,3.00000,0.00000,20.22000,0
0.05000,-0.11000,0.93000,-102.40000,-4.55000,-5.00000,-100.37000,-4.54000,-5.21000,-2.03000,-0.01000,0.21000,20.00000,3.00000,0.00000,20.22000,0
0.05000,-0.12000,0.94000,-102.10000,-3.10000,-5.40000,-100.56000,-4.51000,-5.30000,-1.54000,1.41000,-0.10000,19.00000,3.00000,0.00000,19.24000,0
0.05000,-0.12000,0.93000,-100.85000,-3.90000,-5.30000,-100.31000,-4.52000,-5.38000,-0.54000,0.62000,0.08000,19.00000,3.00000,0.00000,19.24000,0
0.05000,-0.11000,0.94000,-98.10000,-4.95000,-5.40000,-100.00000,-4.56000,-5.37000,1.90000,-0.39000,-0.03000,20.00000,3.00000,0.00000,20.22000,0
0.05000,-0.11000,0.93000,-99.70000,-4.20000,-5.05000,-100.35000,-4.35000,-5.29000,0.65000,0.15000,0.24000,17.00000,3.00000,0.00000,17.26000,0
0.05000,-0.11000,0.93000,-102.05000,-3.30000,-5.30000,-100.69000,-4.22000,-5.23000,-1.36000,0.92000,-0.07000,16.00000,3.00000,0.00000,16.28000,0
0.05000,-0.11000,0.94000,-101.45000,-3.35000,-5.85000,-100.28000,-4.28000,-5.31000,-1.17000,0.93000,-0.54000,13.00000,2.00000,0.00000,13.15000,0
0.05000,-0.12000,0.93000,-96.85000,-3.10000,-4.95000,-99.78000,-4.10000,-5.26000,2.93000,1.00000,0.31000,16.00000,3.00000,0.00000,16.28000,0
0.05000,-0.11000,0.93000,-99.20000,-4.30000,-5.60000,-100.15000,-4.02000,-5.29000,0.95000,-0.28000,-0.31000,11.00000,1.00000,0.00000,11.05000,0
0.05000,-0.12000,0.94000,-103.35000,-3.40000,-4.70000,-100.60000,-3.82000,-5.26000,-2.75000,0.41000,0.56000,11.00000,1.00000,0.00000,11.05000,0
0.05000,-0.12000,0.93000,-101.10000,-3.65000,-5.30000,-100.47000,-3.73000,-5.28000,-0.63000,0.08000,-0.02000,10.00000,1.00000,0.00000,10.05000,0
0.05000,-0.11000,0.94000,-99.75000,-4.50000,-6.40000,-100.24000,-3.87000,-5.39000,0.49000,-0.63000,-1.01000,11.00000,1.00000,1.00000,11.09000,0
0.05000,-0.11000,0.94000,-100.65000,-4.45000,-6.75000,-100.22000,-3.92000,-5.53000,-0.43000,-0.53000,-1.22000,11.00000,1.00000,1.00000,11.09000,0
0.05000,-0.11000,0.94000,-100.30000,-3.45000,-5.15000,-100.44000,-3.77000,-5.51000,0.14000,0.32000,0.36000,8.00000,0.00000,1.00000,8.06000,0
0.05000,-0.11000,0.94000,-100.30000,-3.15000,-5.10000,-100.50000,-3.67000,-5.51000,0.20000,0.52000,0.41000,7.00000,0.00000,1.00000,7.07000,0
0.05000,-0.12000,0.94000,-99.75000,-4.45000,-5.80000,-100.27000,-3.78000,-5.56000,0.52000,-0.67000,-0.24000,8.00000,0.00000,1.00000,8.06000,0
0.05000,-0.11000,0.94000,-97.90000,-4.75000,-5.15000,-99.92000,-3.92000,-5.49000,2.01000,-0.83000,0.34000,9.00000,0.00000,1.00000,9.06000,0
0.06000,-0.11000,0.93000,-100.55000,-4.35000,-5.00000,-100.28000,-4.04000,-5.49000,-0.27000,-0.31000,0.49000,6.00000,0.00000,1.00000,6.08000,0
0.04000,-0.12000,0.93000,-103.20000,-3.55000,-4.45000,-100.69000,-3.97000,-5.38000,-2.51000,0.42000,0.93000,6.00000,0.00000,2.00000,6.32000,0
0.05000,-0.11000,0.94000,-100.25000,-4.15000,-5.05000,-100.37000,-4.04000,-5.41000,0.13000,-0.11000,0.36000,4.00000,0.00000,1.00000,4.12000,0
0.05000,-0.12000,0.94000,-97.20000,-5.00000,-4.60000,-99.99000,-4.18000,-5.35000,2.79000,-0.82000,0.75000,7.00000,1.00000,2.00000,7.35000,0
0.04000,-0.11000,0.94000,-100.10000,-5.25000,-5.20000,-100.02000,-4.26000,-5.22000,-0.08000,-0.99000,0.02000,7.00000,1.00000,1.00000,7.14000,0
0.05000,-0.11000,0.94000,-101.00000,-3.65000,-4.85000,-100.06000,-4.18000,-5.03000,-0.94000,0.53000,0.18000,7.00000,2.00000,0.00000,7.28000,0
0.05000,-0.11000,0.94000,-99.25000,-5.05000,-5.50000,-99.95000,-4.34000,-5.07000,0.70000,-0.72000,-0.43000,8.00000,1.00000,0.00000,8.06000,0
0.05000,-0.12000,0.94000,-99.10000,-4.90000,-6.10000,-99.83000,-4.51000,-5.17000,0.73000,-0.39000,-0.93000,7.00000,0.00000,0.00000,7.00000,0
0.04000,-0.11000,0.94000,-99.80000,-4.05000,-4.95000,-99.83000,-4.47000,-5.09000,0.03000,0.42000,0.14000,7.00000,0.00000,1.00000,7.07000,0
0.05000,-0.11000,0.94000,-100.65000,-3.90000,-4.80000,-100.11000,-4.39000,-5.05000,-0.54000,0.49000,0.25000,6.00000,0.00000,1.00000,6.08000,0
0.05000,-0.12000,0.94000,-101.35000,-3.60000,-4.70000,-100.19000,-4.31000,-5.02000,-1.16000,0.71000,0.32000,7.00000,0.00000,1.00000,7.07000,0
0.05000,-0.11000,0.94000,-100.65000,-3.50000,-5.80000,-99.93000,-4.30000,-5.15000,-0.72000,0.80000,-0.65000,4.00000,0.00000,0.00000,4.00000,0
0.05000,-0.11000,0.94000,-99.10000,-4.20000,-6.10000,-99.82000,-4.31000,-5.26000,0.72000,0.11000,-0.84000,4.00000,0.00000,0.00000,4.00000,0
0.05000,-0.11000,0.94000,-99.70000,-4.70000,-5.75000,-100.07000,-4.28000,-5.37000,0.37000,-0.42000,-0.38000,1.00000,0.00000,0.00000,1.00000,0
0.04000,-0.11000,0.93000,-101.80000,-4.70000,-4.60000,-100.24000,-4.23000,-5.31000,-1.56000,-0.47000,0.71000,4.00000,0.00000,0.00000,4.00000,0
0.04000,-0.12000,0.94000,-100.45000,-4.20000,-5.00000,-100.19000,-4.28000,-5.33000,-0.26000,0.08000,0.33000,4.00000,0.00000,0.00000,4.00000,0
0.05000,-0.11000,0.94000,-99.50000,-5.30000,-5.80000,-100.21000,-4.31000,-5.36000,0.71000,-0.99000,-0.44000,4.00000,0.00000,0.00000,4.00000,0
0.06000,-0.11000,0.93000,-100.45000,-2.65000,-4.95000,-100.35000,-4.08000,-5.24000,-0.10000,1.43000,0.30000,3.00000,2.00000,0.00000,3.61000,0
0.05000,-0.11000,0.94000,-101.05000,-3.90000,-5.30000,-100.47000,-4.07000,-5.28000,-0.58000,0.16000,-0.02000,2.00000,2.00000,0.00000,2.83000,0
0.04000,-0.12000,0.94000,-100.50000,-3.15000,-5.70000,-100.46000,-3.99000,-5.37000,-0.04000,0.84000,-0.33000,2.00000,2.00000,0.00000,2.83000,0
0.05000,-0.11000,0.94000,-101.00000,-4.50000,-5.85000,-100.42000,-4.08000,-5.48000,-0.58000,-0.42000,-0.37000,2.00000,2.00000,0.00000,2.83000,0
0.05000,-0.12000,0.94000,-100.80000,-3.85000,-5.80000,-100.43000,-4.11000,-5.48000,-0.37000,0.26000,-0.32000,2.00000,2.00000,0.00000,2.83000,0
0.05000,-0.11000,0.93000,-98.85000,-4.25000,-5.45000,-100.41000,-4.12000,-5.42000,1.56000,-0.13000,-0.03000,2.00000,2.00000,0.00000,2.83000,0
0.05000,-0.11000,0.95000,-100.15000,-4.10000,-5.85000,-100.46000,-4.06000,-5.43000,0.31000,-0.04000,-0.42000,2.00000,2.00000,0.00000,2.83000,0
0.05000,-0.11000,0.94000,-101.15000,-4.40000,-4.15000,-100.39000,-4.03000,-5.38000,-0.76000,-0.37000,1.23000,1.00000,2.00000,1.00000,2.45000,0
0.05000,-0.11000,0.95000,-100.70000,-4.60000,-4.60000,-100.42000,-4.07000,-5.35000,-0.28000,-0.53000,0.75000,1.00000,2.00000,1.00000,2.45000,0
0.05000,-0.11000,0.94000,-99.35000,-4.25000,-5.50000,-100.40000,-3.97000,-5.31000,1.05000,-0.28000,-0.19000,2.00000,1.00000,1.00000,2.45000,0
0.05000,-0.11000,0.95000,-100.65000,-3.90000,-4.55000,-100.42000,-4.09000,-5.28000,-0.23000,0.19000,0.72000,2.00000,0.00000,1.00000,2.24000,0
0.05000,-0.12000,0.94000,-99.50000,-4.20000,-5.30000,-100.26000,-4.12000,-5.27000,0.76000,-0.08000,-0.03000,1.00000,0.00000,1.00000,1.41000,0
0.05000,-0.12000,0.94000,-100.40000,-3.15000,-4.15000,-100.25000,-4.12000,-5.12000,-0.15000,0.97000,0.97000,1.00000,0.00000,0.00000,1.00000,0
0.05000,-0.12000,0.94000,-101.40000,-2.75000,-5.30000,-100.29000,-3.95000,-5.07000,-1.11000,1.20000,-0.24000,2.00000,1.00000,0.00000,2.24000,0
0.04000,-0.11000,0.94000,-100.25000,-3.85000,-5.20000,-100.24000,-3.95000,-5.01000,-0.01000,0.10000,-0.19000,2.00000,1.00000,0.00000,2.24000,0
0.04000,-0.12000,0.93000,-99.65000,-4.65000,-5.30000,-100.32000,-3.99000,-4.99000,0.67000,-0.66000,-0.31000,1.00000,1.00000,0.00000,1.41000,0
0.05000,-0.11000,0.94000,-100.65000,-3.05000,-5.90000,-100.37000,-3.88000,-4.99000,-0.28000,0.83000,-0.91000,2.00000,1.00000,0.00000,2.24000,0
0.05000,-0.12000,0.93000,-101.85000,-4.10000,-5.40000,-100.44000,-3.85000,-5.12000,-1.41000,-0.25000,-0.28000,2.00000,1.00000,0.00000,2.24000,0
0.05000,-0.12000,0.94000,-99.95000,-4.35000,-6.15000,-100.37000,-3.82000,-5.28000,0.42000,-0.53000,-0.87000,3.00000,1.00000,1.00000,3.32000,0
0.06000,-0.11000,0.94000,-99.25000,-3.95000,-6.00000,-100.35000,-3.80000,-5.33000,1.10000,-0.15000,-0.67000,3.00000,1.00000,1.00000,3.32000,0
0.05000,-0.11000,0.94000,-99.80000,-3.85000,-5.50000,-100.27000,-3.79000,-5.42000,0.47000,-0.06000,-0.08000,3.00000,1.00000,1.00000,3.32000,0
0.05000,-0.11000,0.94000,-100.00000,-3.00000,-5.90000,-100.32000,-3.67000,-5.48000,0.32000,0.67000,-0.42000,3.00000,0.00000,1.00000,3.16000,0
0.05000,-0.12000,0.94000,-99.40000,-3.65000,-5.05000,-100.22000,-3.72000,-5.57000,0.82000,0.07000,0.52000,2.00000,0.00000,0.00000,2.00000,0
0.05000,-0.11000,0.94000,-99.80000,-4.20000,-4.40000,-100.06000,-3.87000,-5.48000,0.26000,-0.33000,1.08000,1.00000,0.00000,1.00000,1.41000,0
0.05000,-0.11000,0.94000,-101.85000,-4.30000,-4.40000,-100.22000,-3.91000,-5.40000,-1.63000,-0.39000,1.00000,2.00000,0.00000,2.00000,2.83000,0
0.05000,-0.12000,0.94000,-101.20000,-4.40000,-5.45000,-100.37000,-3.88000,-5.42000,-0.82000,-0.52000,-0.03000,3.00000,0.00000,2.00000,3.61000,0
0.05000,-0.11000,0.95000,-98.55000,-3.75000,-5.20000,-100.16000,-3.95000,-5.35000,1.61000,0.20000,0.15000,4.00000,0.00000,0.00000,4.00000,0
0.04000,-0.11000,0.94000,-101.50000,-4.50000,-5.80000,-100.13000,-3.99000,-5.39000,-1.37000,-0.51000,-0.41000,4.00000,0.00000,0.00000,4.00000,0
0.05000,-0.11000,0.94000,-101.20000,-3.55000,-4.75000,-100.25000,-3.91000,-5.24000,-0.94000,0.36000,0.49000,4.00000,0.00000,0.00000,4.00000,0
0.04000,-0.11000,0.94000,-100.30000,-4.80000,-4.90000,-100.36000,-4.00000,-5.14000,0.06000,-0.80000,0.24000,3.00000,1.00000,0.00000,3.16000,0
0.05000,-0.11000,0.94000,-99.50000,-4.55000,-5.55000,-100.33000,-4.07000,-5.14000,0.83000,-0.48000,-0.41000,3.00000,1.00000,0.00000,3.16000,0
0.05000,-0.11000,0.93000,-100.25000,-2.90000,-5.00000,-100.35000,-4.06000,-5.05000,0.10000,1.16000,0.05000,3.00000,1.00000,0.00000,3.16000,0
0.05000,-0.12000,0.94000,-101.75000,-3.60000,-6.10000,-100.59000,-4.05000,-5.15000,-1.16000,0.45000,-0.95000,5.00000,1.00000,0.00000,5.10000,0
0.05000,-0.12000,0.95000,-100.20000,-4.50000,-5.30000,-100.63000,-4.09000,-5.24000,0.43000,-0.41000,-0.06000,5.00000,1.00000,0.00000,5.10000,0
0.05000,-0.11000,0.95000,-99.20000,-4.25000,-5.50000,-100.37000,-4.08000,-5.36000,1.17000,-0.17000,-0.14000,4.00000,1.00000,0.00000,4.12000,0
0.05000,-0.11000,0.94000,-99.65000,-5.05000,-4.80000,-100.21000,-4.14000,-5.29000,0.56000,-0.91000,0.49000,4.00000,1.00000,0.00000,4.12000,0
0.05000,-0.11000,0.93000,-100.30000,-4.15000,-6.00000,-100.39000,-4.19000,-5.37000,0.08000,0.04000,-0.63000,3.00000,1.00000,0.00000,3.16000,0
0.05000,-0.12000,0.93000,-102.10000,-4.15000,-6.25000,-100.44000,-4.15000,-5.41000,-1.65000,0.00000,-0.84000,3.00000,1.00000,0.00000,3.16000,0
0.05000,-0.12000,0.94000,-99.95000,-4.75000,-6.50000,-100.32000,-4.27000,-5.59000,0.37000,-0.48000,-0.91000,3.00000,1.00000,0.00000,3.16000,0
0.06000,-0.11000,0.94000,-98.70000,-4.05000,-5.15000,-100.16000,-4.19000,-5.62000,1.46000,0.14000,0.47000,3.00000,1.00000,0.00000,3.16000,0
0.05000,-0.11000,0.93000,-100.90000,-4.75000,-5.55000,-100.30000,-4.21000,-5.62000,-0.60000,-0.54000,0.07000,4.00000,1.00000,0.00000,4.12000,0
0.04000,-0.11000,0.95000,-100.70000,-2.55000,-4.90000,-100.35000,-4.18000,-5.61000,-0.35000,1.63000,0.71000,4.00000,1.00000,0.00000,4.12000,0
0.05000,-0.11000,0.95000,-99.40000,-3.90000,-5.20000,-100.11000,-4.21000,-5.52000,0.71000,0.31000,0.32000,2.00000,1.00000,0.00000,2.24000,0
0.06000,-0.12000,0.94000,-98.95000,-4.10000,-5.20000,-99.99000,-4.17000,-5.51000,1.04000,0.07000,0.31000,4.00000,1.00000,0.00000,4.12000,0
0.05000,-0.11000,0.94000,-100.15000,-4.00000,-6.20000,-100.08000,-4.14000,-5.58000,-0.07000,0.14000,-0.62000,4.00000,1.00000,0.00000,4.12000,0
0.05000,-0.12000,0.94000,-100.60000,-3.65000,-5.30000,-100.18000,-4.01000,-5.63000,-0.42000,0.36000,0.33000,3.00000,1.00000,0.00000,3.16000,0
0.05000,-0.12000,0.94000,-101.15000,-3.55000,-5.30000,-100.26000,-3.95000,-5.55000,-0.89000,0.40000,0.25000,3.00000,1.00000,0.00000,3.16000,0
0.05000,-0.11000,0.95000,-101.05000,-3.95000,-5.65000,-100.15000,-3.92000,-5.49000,-0.90000,-0.03000,-0.16000,2.00000,1.00000,1.00000,2.45000,0
0.05000,-0.12000,0.94000,-99.05000,-5.55000,-5.65000,-100.06000,-4.01000,-5.41000,1.01000,-1.55000,-0.24000,4.00000,2.00000,0.00000,4.47000,0
0.05000,-0.12000,0.94000,-101.40000,-4.90000,-5.15000,-100.34000,-4.09000,-5.41000,-1.06000,-0.81000,0.26000,3.00000,2.00000,0.00000,3.61000,0
0.05000,-0.12000,0.94000,-102.10000,-4.20000,-5.20000,-100.46000,-4.04000,-5.38000,-1.64000,-0.16000,0.18000,4.00000,2.00000,0.00000,4.47000,0
0.04000,-0.11000,0.94000,-100.70000,-4.30000,-4.50000,-100.46000,-4.21000,-5.34000,-0.24000,-0.09000,0.84000,4.00000,1.00000,0.00000,4.12000,0
0.05000,-0.11000,0.94000,-98.55000,-5.35000,-6.30000,-100.37000,-4.35000,-5.45000,1.82000,-1.00000,-0.86000,5.00000,1.00000,0.00000,5.10000,0
0.05000,-0.11000,0.93000,-100.80000,-4.15000,-5.40000,-100.56000,-4.36000,-5.47000,-0.25000,0.21000,0.07000,4.00000,1.00000,0.00000,4.12000,0
0.05000,-0.11000,0.94000,-101.40000,-3.40000,-4.85000,-100.68000,-4.30000,-5.33000,-0.72000,0.90000,0.48000,4.00000,2.00000,0.00000,4.47000,0
0.04000,-0.12000,0.95000,-100.95000,-4.95000,-4.10000,-100.72000,-4.43000,-5.21000,-0.23000,-0.52000,1.11000,4.00000,2.00000,2.00000,4.90000,0
0.05000,-0.12000,0.94000,-99.75000,-4.85000,-5.60000,-100.57000,-4.56000,-5.24000,0.82000,-0.29000,-0.36000,4.00000,1.00000,2.00000,4.58000,0
0.04000,-0.11000,0.95000,-99.90000,-4.60000,-6.05000,-100.46000,-4.62000,-5.28000,0.56000,0.02000,-0.77000,3.00000,1.00000,2.00000,3.74000,0
0.06000,-0.12000,0.94000,-99.95000,-4.40000,-5.35000,-100.55000,-4.51000,-5.25000,0.60000,0.11000,-0.10000,3.00000,1.00000,2.00000,3.74000,0
0.05000,-0.12000,0.94000,-101.70000,-3.30000,-4.85000,-100.58000,-4.35000,-5.22000,-1.12000,1.05000,0.37000,4.00000,2.00000,2.00000,4.90000,0
0.05000,-0.12000,0.94000,-102.45000,-4.30000,-5.05000,-100.62000,-4.36000,-5.20000,-1.83000,0.06000,0.15000,4.00000,1.00000,2.00000,4.58000,0
0.05000,-0.12000,0.95000,-99.10000,-4.95000,-5.80000,-100.46000,-4.43000,-5.34000,1.36000,-0.52000,-0.47000,4.00000,2.00000,1.00000,4.58000,0
0.05000,-0.11000,0.94000,-99.20000,-4.80000,-5.55000,-100.52000,-4.37000,-5.26000,1.32000,-0.43000,-0.29000,4.00000,1.00000,1.00000,4.24000,0
0.05000,-0.11000,0.94000,-103.45000,-3.85000,-5.25000,-100.79000,-4.34000,-5.24000,-2.66000,0.49000,-0.01000,6.00000,1.00000,1.00000,6.16000,0
0.04000,-0.12000,0.95000,-101.00000,-4.15000,-5.70000,-100.75000,-4.41000,-5.33000,-0.25000,0.26000,-0.37000,5.00000,1.00000,1.00000,5.20000,0
0.05000,-0.11000,0.94000,-98.20000,-5.05000,-6.30000,-100.47000,-4.43000,-5.55000,2.27000,-0.62000,-0.75000,8.00000,1.00000,0.00000,8.06000,0
0.05000,-0.11000,0.94000,-100.20000,-3.70000,-6.05000,-100.51000,-4.31000,-5.59000,0.32000,0.61000,-0.46000,8.00000,1.00000,0.00000,8.06000,0
0.05000,-0.12000,0.94000,-100.95000,-3.45000,-4.80000,-100.62000,-4.20000,-5.47000,-0.33000,0.75000,0.67000,8.00000,0.00000,0.00000,8.00000,0
0.05000,-0.12000,0.94000,-100.25000,-2.80000,-4.90000,-100.65000,-4.04000,-5.43000,0.40000,1.24000,0.53000,8.00000,2.00000,0.00000,8.25000,0
0.05000,-0.12000,0.95000,-100.75000,-3.05000,-5.80000,-100.56000,-4.01000,-5.52000,-0.19000,0.96000,-0.28000,7.00000,2.00000,0.00000,7.28000,0
0.05000,-0.11000,0.93000,-99.30000,-3.60000,-5.00000,-100.24000,-3.94000,-5.51000,0.94000,0.34000,0.51000,7.00000,3.00000,0.00000,7.62000,0
0.05000,-0.11000,0.93000,-99.65000,-3.95000,-5.20000,-100.29000,-3.84000,-5.45000,0.64000,-0.11000,0.26000,6.00000,2.00000,0.00000,6.32000,0
0.05000,-0.11000,0.95000,-101.60000,-4.05000,-6.30000,-100.53000,-3.76000,-5.53000,-1.07000,-0.29000,-0.77000,6.00000,1.00000,0.00000,6.08000,0
0.05000,-0.12000,0.94000,-100.85000,-4.20000,-5.00000,-100.27000,-3.80000,-5.51000,-0.58000,-0.40000,0.51000,3.00000,2.00000,0.00000,3.61000,0
0.05000,-0.11000,0.94000,-98.80000,-5.40000,-5.95000,-100.05000,-3.93000,-5.53000,1.25000,-1.47000,-0.42000,3.00000,3.00000,0.00000,4.24000,0
0.05000,-0.11000,0.95000,-99.75000,-3.90000,-4.65000,-100.21000,-3.81000,-5.37000,0.46000,-0.09000,0.72000,2.00000,2.00000,0.00000,2.83000,0
0.05000,-0.12000,0.95000,-102.75000,-4.20000,-5.15000,-100.46000,-3.86000,-5.28000,-2.29000,-0.34000,0.13000,5.00000,2.00000,1.00000,5.48000,0
0.05000,-0.12000,0.95000,-100.60000,-4.10000,-5.75000,-100.43000,-3.92000,-5.37000,-0.17000,-0.17000,-0.38000,5.00000,2.00000,0.00000,5.39000,0
0.05000,-0.12000,0.94000,-99.15000,-4.00000,-5.45000,-100.32000,-4.04000,-5.43000,1.17000,0.04000,-0.02000,6.00000,1.00000,0.00000,6.08000,0
0.04000,-0.12000,0.94000,-99.45000,-4.30000,-5.55000,-100.19000,-4.17000,-5.40000,0.74000,-0.13000,-0.15000,5.00000,1.00000,0.00000,5.10000,0
0.04000,-0.12000,0.94000,-100.60000,-4.75000,-5.45000,-100.32000,-4.29000,-5.45000,-0.28000,-0.46000,0.00000,5.00000,1.00000,0.00000,5.10000,0
0.05000,-0.12000,0.94000,-99.90000,-3.90000,-5.90000,-100.35000,-4.28000,-5.52000,0.44000,0.38000,-0.38000,5.00000,1.00000,0.00000,5.10000,0
0.05000,-0.11000,0.93000,-99.90000,-4.10000,-5.45000,-100.18000,-4.29000,-5.43000,0.28000,0.19000,-0.02000,4.00000,1.00000,0.00000,4.12000,0
0.05000,-0.11000,0.93000,-99.55000,-4.05000,-5.95000,-100.04000,-4.27000,-5.53000,0.49000,0.22000,-0.42000,3.00000,1.00000,0.00000,3.16000,0
0.05000,-0.11000,0.95000,-100.35000,-3.95000,-5.65000,-100.20000,-4.12000,-5.50000,-0.15000,0.17000,-0.15000,3.00000,0.00000,0.00000,3.00000,0
0.05000,-0.12000,0.94000,-100.70000,-4.20000,-5.55000,-100.29000,-4.15000,-5.59000,-0.40000,-0.05000,0.03000,3.00000,0.00000,0.00000,3.00000,0
0.05000,-0.12000,0.95000,-100.45000,-3.05000,-4.70000,-100.07000,-4.04000,-5.54000,-0.38000,0.99000,0.84000,0.00000,0.00000,0.00000,0.00000,0
0.05000,-0.11000,0.94000,-99.00000,-3.95000,-4.95000,-99.90000,-4.03000,-5.46000,0.90000,0.08000,0.51000,0.00000,0.00000,0.00000,0.00000,0
0.05000,-0.11000,0.94000,-100.20000,-4.40000,-4.80000,-100.01000,-4.07000,-5.39000,-0.19000,-0.33000,0.59000,1.00000,1.00000,0.00000,1.41000,0
0.05000,-0.11000,0.94000,-101.55000,-3.80000,-5.25000,-100.22000,-4.02000,-5.37000,-1.33000,0.22000,0.12000,2.00000,0.00000,0.00000,2.00000,0
0.05000,-0.12000,0.94000,-101.35000,-3.75000,-5.35000,-100.29000,-3.92000,-5.36000,-1.06000,0.17000,0.01000,3.00000,0.00000,0.00000,3.00000,0
0.04000,-0.11000,0.95000,-99.80000,-4.40000,-5.90000,-100.28000,-3.97000,-5.36000,0.48000,-0.43000,-0.55000,3.00000,0.00000,0.00000,3.00000,0
0.06000,-0.12000,0.93000,-100.00000,-3.65000,-5.05000,-100.29000,-3.92000,-5.32000,0.29000,0.27000,0.26000,3.00000,0.00000,0.00000,3.00000,0
0.05000,-0.11000,0.94000,-100.65000,-4.25000,-5.90000,-100.40000,-3.94000,-5.31000,-0.25000,-0.31000,-0.59000,2.00000,0.00000,0.00000,2.00000,0
0.05000,-0.11000,0.94000,-101.10000,-4.55000,-5.25000,-100.48000,-4.00000,-5.27000,-0.62000,-0.55000,0.02000,2.00000,0.00000,0.00000,2.00000,0
0.05000,-0.12000,0.94000,-101.25000,-4.05000,-6.15000,-100.54000,-3.98000,-5.33000,-0.71000,-0.07000,-0.82000,2.00000,0.00000,0.00000,2.00000,0
0.05000,-0.11000,0.95000,-100.60000,-4.75000,-5.70000,-100.55000,-4.15000,-5.43000,-0.05000,-0.60000,-0.27000,2.00000,0.00000,0.00000,2.00000,0
0.04000,-0.11000,0.93000,-99.65000,-3.85000,-5.05000,-100.62000,-4.14000,-5.44000,0.97000,0.29000,0.39000,0.00000,0.00000,0.00000,0.00000,0
0.05000,-0.11000,0.94000,-100.20000,-4.40000,-5.90000,-100.62000,-4.14000,-5.55000,0.42000,-0.26000,-0.35000,0.00000,0.00000,0.00000,0.00000,0
0.05000,-0.11000,0.94000,-101.20000,-4.10000,-5.65000,-100.58000,-4.17000,-5.59000,-0.62000,0.07000,-0.06000,0.00000,0.00000,0.00000,0.00000,0
0.05000,-0.11000,0.93000,-99.80000,-3.95000,-5.20000,-100.43000,-4.20000,-5.58000,0.62000,0.25000,0.38000,0.00000,0.00000,0.00000,0.00000,0
0.05000,-0.12000,0.95000,-100.00000,-4.95000,-5.30000,-100.44000,-4.25000,-5.52000,0.44000,-0.70000,0.22000,0.00000,0.00000,0.00000,0.00000,0
0.04000,-0.11000,0.95000,-100.35000,-4.60000,-6.00000,-100.48000,-4.35000,-5.61000,0.13000,-0.25000,-0.39000,0.00000,0.00000,0.00000,0.00000,0
0.05000,-0.11000,0.94000,-100.45000,-3.20000,-5.30000,-100.46000,-4.24000,-5.55000,0.01000,1.04000,0.25000,0.00000,1.00000,0.00000,1.00000,0
0.05000,-0.11000,0.94000,-101.80000,-4.40000,-5.85000,-100.53000,-4.22000,-5.61000,-1.27000,-0.18000,-0.24000,1.00000,1.00000,0.00000,1.41000,0
0.05000,-0.12000,0.95000,-100.30000,-4.15000,-6.60000,-100.43000,-4.24000,-5.65000,0.13000,0.09000,-0.95000,1.00000,1.00000,0.00000,1.41000,0
0.05000,-0.12000,0.94000,-100.10000,-4.10000,-6.10000,-100.38000,-4.17000,-5.69000,0.28000,0.07000,-0.41000,1.00000,0.00000,0.00000,1.00000,0
0.04000,-0.11000,0.94000,-99.95000,-4.55000,-5.40000,-100.41000,-4.24000,-5.73000,0.46000,-0.31000,0.33000,1.00000,1.00000,0.00000,1.41000,0
0.05000,-0.11000,0.94000,-100.55000,-4.65000,-5.45000,-100.45000,-4.27000,-5.68000,-0.10000,-0.38000,0.24000,1.00000,1.00000,0.00000,1.41000,0
0.06000,-0.11000,0.94000,-100.90000,-4.20000,-5.60000,-100.42000,-4.28000,-5.68000,-0.48000,0.08000,0.08000,1.00000,1.00000,0.00000,1.41000,0
0.04000,-0.11000,0.94000,-99.40000,-4.25000,-5.55000,-100.38000,-4.31000,-5.72000,0.98000,0.06000,0.16000,1.00000,1.00000,0.00000,1.41000,0
0.05000,-0.11000,0.95000,-99.95000,-3.45000,-5.30000,-100.37000,-4.15000,-5.71000,0.43000,0.70000,0.41000,1.00000,0.00000,0.00000,1.00000,0
0.05000,-0.12000,0.94000,-100.85000,-3.85000,-5.30000,-100.43000,-4.08000,-5.64000,-0.42000,0.23000,0.34000,2.00000,0.00000,0.00000,2.00000,0
0.04000,-0.12000,0.93000,-99.90000,-4.35000,-5.35000,-100.37000,-4.19000,-5.65000,0.47000,-0.16000,0.30000,1.00000,0.00000,0.00000,1.00000,0
0.05000,-0.12000,0.95000,-100.40000,-4.00000,-5.10000,-100.23000,-4.15000,-5.57000,-0.17000,0.15000,0.47000,0.00000,0.00000,1.00000,1.00000,0
0.05000,-0.12000,0.94000,-101.25000,-4.55000,-5.20000,-100.32000,-4.20000,-5.43000,-0.93000,-0.36000,0.24000,0.00000,0.00000,0.00000,0.00000,0
0.05000,-0.11000,0.94000,-99.30000,-3.45000,-5.85000,-100.25000,-4.13000,-5.41000,0.94000,0.68000,-0.44000,1.00000,0.00000,0.00000,1.00000,0
0.05000,-0.12000,0.94000,-100.25000,-3.85000,-4.85000,-100.28000,-4.06000,-5.35000,0.03000,0.21000,0.50000,0.00000,0.00000,0.00000,0.00000,0
0.05000,-0.11000,0.93000,-99.90000,-4.40000,-5.55000,-100.21000,-4.04000,-5.36000,0.31000,-0.36000,-0.19000,1.00000,0.00000,0.00000,1.00000,0
0.05000,-0.11000,0.94000,-100.00000,-3.95000,-4.70000,-100.12000,-4.01000,-5.28000,0.12000,0.06000,0.58000,1.00000,0.00000,0.00000,1.00000,0
0.05000,-0.12000,0.95000,-99.80000,-4.90000,-5.35000,-100.16000,-4.08000,-5.25000,0.36000,-0.82000,-0.10000,1.00000,0.00000,0.00000,1.00000,0
0.05000,-0.12000,0.94000,-101.20000,-2.70000,-6.70000,-100.29000,-4.00000,-5.39000,-0.91000,1.30000,-1.30000,0.00000,1.00000,1.00000,1.41000,0
0.05000,-0.12000,0.93000,-100.05000,-3.35000,-4.90000,-100.21000,-3.95000,-5.36000,0.15000,0.60000,0.46000,1.00000,1.00000,1.00000,1.73000,0
0.05000,-0.12000,0.94000,-99.35000,-4.30000,-6.20000,-100.15000,-3.95000,-5.44000,0.80000,-0.36000,-0.76000,2.00000,1.00000,1.00000,2.45000,0
0.05000,-0.12000,0.94000,-100.55000,-4.65000,-6.25000,-100.16000,-4.01000,-5.56000,-0.39000,-0.64000,-0.69000,2.00000,1.00000,1.00000,2.45000,0
0.05000,-0.11000,0.94000,-101.05000,-5.25000,-5.40000,-100.14000,-4.08000,-5.58000,-0.91000,-1.17000,0.18000,1.00000,2.00000,1.00000,2.45000,0
0.05000,-0.12000,0.94000,-100.15000,-3.90000,-5.35000,-100.23000,-4.13000,-5.53000,0.08000,0.23000,0.18000,0.00000,2.00000,1.00000,2.24000,0
0.05000,-0.12000,0.94000,-101.10000,-4.45000,-5.50000,-100.31000,-4.19000,-5.59000,-0.79000,-0.26000,0.09000,0.00000,2.00000,1.00000,2.24000,0
0.05000,-0.11000,0.94000,-101.05000,-5.75000,-5.30000,-100.43000,-4.32000,-5.56000,-0.62000,-1.43000,0.26000,1.00000,2.00000,1.00000,2.45000,0
0.05000,-0.12000,0.94000,-99.95000,-4.05000,-5.35000,-100.43000,-4.33000,-5.63000,0.48000,0.28000,0.28000,1.00000,2.00000,1.00000,2.45000,0
0.05000,-0.12000,0.94000,-101.65000,-3.90000,-4.90000,-100.61000,-4.23000,-5.59000,-1.04000,0.33000,0.68000,2.00000,3.00000,1.00000,3.74000,0
0.05000,-0.11000,0.94000,-100.35000,-4.65000,-6.30000,-100.53000,-4.43000,-5.54000,0.18000,-0.22000,-0.76000,2.00000,2.00000,0.00000,2.83000,0
0.05000,-0.12000,0.94000,-99.20000,-3.60000,-5.45000,-100.44000,-4.45000,-5.60000,1.24000,0.85000,0.15000,3.00000,1.00000,0.00000,3.16000,0
0.05000,-0.11000,0.94000,-101.00000,-4.45000,-4.80000,-100.61000,-4.46000,-5.46000,-0.39000,0.01000,0.66000,2.00000,1.00000,0.00000,2.24000,0
0.05000,-0.11000,0.94000,-100.85000,-3.30000,-5.30000,-100.64000,-4.33000,-5.36000,-0.21000,1.03000,0.06000,2.00000,2.00000,0.00000,2.83000,0
0.05000,-0.11000,0.93000,-99.75000,-4.50000,-5.00000,-100.50000,-4.26000,-5.32000,0.75000,-0.24000,0.32000,2.00000,1.00000,0.00000,2.24000,0
0.05000,-0.11000,0.93000,-98.90000,-4.70000,-6.25000,-100.38000,-4.34000,-5.41000,1.48000,-0.36000,-0.84000,3.00000,2.00000,0.00000,3.61000,0
0.05000,-0.11000,0.93000,-100.20000,-4.25000,-5.40000,-100.29000,-4.32000,-5.40000,0.09000,0.07000,0.00000,3.00000,2.00000,0.00000,3.61000,0
0.05000,-0.11000,0.93000,-99.75000,-3.55000,-4.90000,-100.16000,-4.10000,-5.37000,0.41000,0.55000,0.47000,2.00000,0.00000,0.00000,2.00000,0
0.05000,-0.11000,0.94000,-100.00000,-4.35000,-6.05000,-100.17000,-4.12000,-5.44000,0.17000,-0.23000,-0.61000,2.00000,0.00000,0.00000,2.00000,0
0.05000,-0.12000,0.94000,-101.60000,-4.80000,-5.35000,-100.16000,-4.21000,-5.48000,-1.44000,-0.59000,0.13000,2.00000,0.00000,0.00000,2.00000,0
0.05000,-0.12000,0.94000,-99.70000,-3.90000,-5.60000,-100.09000,-4.14000,-5.41000,0.39000,0.24000,-0.19000,2.00000,0.00000,0.00000,2.00000,0
0.05000,-0.11000,0.94000,-99.20000,-4.45000,-5.65000,-100.10000,-4.23000,-5.43000,0.90000,-0.22000,-0.22000,2.00000,0.00000,0.00000,2.00000,0
0.05000,-0.11000,0.94000,-100.20000,-3.30000,-5.50000,-100.01000,-4.11000,-5.50000,-0.18000,0.81000,0.00000,2.00000,0.00000,0.00000,2.00000,0
0.05000,-0.12000,0.94000,-102.80000,-3.90000,-5.35000,-100.21000,-4.17000,-5.50000,-2.59000,0.27000,0.15000,5.00000,0.00000,0.00000,5.00000,0
0.05000,-0.11000,0.94000,-98.70000,-4.35000,-5.20000,-100.11000,-4.15000,-5.53000,1.41000,-0.20000,0.33000,5.00000,0.00000,0.00000,5.00000,0
0.05000,-0.11000,0.94000,-99.30000,-5.50000,-5.00000,-100.15000,-4.23000,-5.40000,0.85000,-1.27000,0.40000,4.00000,1.00000,0.00000,4.12000,0
0.05000,-0.11000,0.94000,-101.25000,-4.95000,-5.90000,-100.25000,-4.30000,-5.45000,-1.00000,-0.64000,-0.45000,6.00000,2.00000,0.00000,6.32000,0
0.05000,-0.12000,0.94000,-101.70000,-4.95000,-5.05000,-100.44000,-4.45000,-5.47000,-1.25000,-0.50000,0.41000,7.00000,2.00000,0.00000,7.28000,0
0.05000,-0.12000,0.94000,-101.50000,-4.50000,-5.40000,-100.60000,-4.46000,-5.40000,-0.90000,-0.04000,0.00000,7.00000,2.00000,0.00000,7.28000,0
0.04000,-0.11000,0.94000,-101.55000,-4.65000,-4.75000,-100.59000,-4.45000,-5.34000,-0.96000,-0.20000,0.59000,6.00000,2.00000,0.00000,6.32000,0
0.05000,-0.12000,0.95000,-99.25000,-4.95000,-5.25000,-100.54000,-4.55000,-5.31000,1.29000,-0.40000,0.06000,8.00000,1.00000,0.00000,8.06000,0
0.05000,-0.12000,0.93000,-99.15000,-4.35000,-5.30000,-100.54000,-4.54000,-5.27000,1.39000,0.19000,-0.03000,8.00000,1.00000,0.00000,8.06000,0
0.05000,-0.11000,0.94000,-101.60000,-3.65000,-5.85000,-100.68000,-4.58000,-5.30000,-0.92000,0.93000,-0.55000,7.00000,0.00000,0.00000,7.00000,0
0.05000,-0.12000,0.94000,-101.00000,-2.80000,-3.95000,-100.50000,-4.46000,-5.16000,-0.50000,1.66000,1.21000,8.00000,2.00000,1.00000,8.31000,0
0.04000,-0.11000,0.94000,-98.05000,-5.45000,-5.40000,-100.43000,-4.57000,-5.19000,2.38000,-0.88000,-0.21000,9.00000,1.00000,1.00000,9.11000,0
0.05000,-0.12000,0.93000,-99.80000,-5.65000,-5.85000,-100.49000,-4.59000,-5.27000,0.68000,-1.06000,-0.58000,8.00000,2.00000,1.00000,8.31000,0
0.05000,-0.11000,0.94000,-102.90000,-2.75000,-5.10000,-100.65000,-4.37000,-5.19000,-2.25000,1.62000,0.09000,7.00000,4.00000,1.00000,8.12000,0
0.05000,-0.12000,0.94000,-101.05000,-4.65000,-6.40000,-100.58000,-4.34000,-5.32000,-0.47000,-0.31000,-1.08000,7.00000,4.00000,2.00000,8.31000,0
0.05000,-0.11000,0.94000,-97.65000,-4.80000,-5.50000,-100.20000,-4.37000,-5.34000,2.55000,-0.43000,-0.16000,9.00000,4.00000,2.00000,10.05000,0
0.05000,-0.12000,0.94000,-99.45000,-4.55000,-6.05000,-99.99000,-4.36000,-5.47000,0.54000,-0.19000,-0.59000,8.00000,4.00000,1.00000,9.00000,0
0.05000,-0.11000,0.94000,-101.85000,-4.30000,-4.95000,-100.25000,-4.29000,-5.44000,-1.60000,-0.01000,0.49000,9.00000,4.00000,1.00000,9.90000,0
0.04000,-0.12000,0.95000,-101.80000,-4.30000,-5.75000,-100.51000,-4.29000,-5.48000,-1.29000,-0.01000,-0.27000,10.00000,4.00000,1.00000,10.82000,0
0.05000,-0.12000,0.94000,-100.35000,-4.45000,-6.20000,-100.39000,-4.37000,-5.52000,0.04000,-0.08000,-0.68000,8.00000,4.00000,1.00000,9.00000,0
0.05000,-0.12000,0.95000,-99.80000,-5.00000,-5.10000,-100.27000,-4.59000,-5.63000,0.47000,-0.41000,0.53000,8.00000,2.00000,0.00000,8.25000,0
0.05000,-0.12000,0.94000,-100.35000,-5.05000,-5.50000,-100.50000,-4.55000,-5.64000,0.15000,-0.50000,0.14000,7.00000,2.00000,0.00000,7.28000,0
0.05000,-0.11000,0.94000,-101.60000,-3.65000,-3.75000,-100.68000,-4.35000,-5.43000,-0.92000,0.70000,1.68000,8.00000,1.00000,1.00000,8.12000,0
0.05000,-0.12000,0.94000,-101.40000,-4.85000,-5.05000,-100.53000,-4.56000,-5.43000,-0.87000,-0.29000,0.37000,6.00000,0.00000,1.00000,6.08000,0
0.05000,-0.12000,0.94000,-99.15000,-4.35000,-4.90000,-100.34000,-4.53000,-5.28000,1.19000,0.18000,0.37000,7.00000,0.00000,1.00000,7.07000,0
0.05000,-0.11000,0.94000,-99.65000,-4.70000,-5.85000,-100.54000,-4.52000,-5.31000,0.89000,-0.18000,-0.54000,5.00000,0.00000,1.00000,5.10000,0
0.05000,-0.12000,0.94000,-100.85000,-4.35000,-4.55000,-100.68000,-4.50000,-5.16000,-0.17000,0.15000,0.61000,4.00000,0.00000,2.00000,4.47000,0
0.05000,-0.12000,0.94000,-103.50000,-3.60000,-4.05000,-100.85000,-4.43000,-5.07000,-2.65000,0.83000,1.02000,5.00000,0.00000,3.00000,5.83000,0
0.05000,-0.12000,0.94000,-100.35000,-4.85000,-5.95000,-100.70000,-4.48000,-5.09000,0.35000,-0.37000,-0.86000,4.00000,0.00000,3.00000,5.00000,0
0.05000,-0.12000,0.93000,-98.20000,-4.50000,-4.90000,-100.49000,-4.49000,-4.96000,2.29000,-0.01000,0.06000,7.00000,0.00000,1.00000,7.07000,0
0.05000,-0.11000,0.94000,-99.90000,-3.85000,-5.25000,-100.50000,-4.37000,-4.98000,0.60000,0.53000,-0.27000,7.00000,0.00000,1.00000,7.07000,0
0.05000,-0.11000,0.93000,-102.25000,-4.25000,-5.40000,-100.69000,-4.29000,-4.97000,-1.56000,0.04000,-0.43000,7.00000,0.00000,1.00000,7.07000,0
0.05000,-0.12000,0.94000,-100.75000,-3.80000,-5.60000,-100.60000,-4.31000,-5.15000,-0.15000,0.51000,-0.45000,6.00000,0.00000,1.00000,6.08000,0
0.05000,-0.12000,0.94000,-98.05000,-5.85000,-4.80000,-100.26000,-4.41000,-5.12000,2.21000,-1.44000,0.32000,9.00000,1.00000,1.00000,9.11000,0
0.05000,-0.11000,0.94000,-100.45000,-4.40000,-5.75000,-100.40000,-4.41000,-5.21000,-0.05000,0.01000,-0.54000,8.00000,1.00000,1.00000,8.12000,0
0.05000,-0.11000,0.93000,-100.95000,-4.10000,-5.10000,-100.53000,-4.36000,-5.13000,-0.42000,0.26000,0.03000,7.00000,1.00000,1.00000,7.14000,0
0.05000,-0.12000,0.93000,-101.90000,-3.60000,-5.90000,-100.63000,-4.28000,-5.27000,-1.27000,0.68000,-0.63000,8.00000,1.00000,1.00000,8.12000,0
0.04000,-0.11000,0.94000,-97.95000,-4.90000,-5.85000,-100.08000,-4.41000,-5.45000,2.13000,-0.49000,-0.40000,8.00000,1.00000,0.00000,8.06000,0
0.05000,-0.12000,0.94000,-97.85000,-3.45000,-4.90000,-99.83000,-4.27000,-5.35000,1.98000,0.82000,0.45000,9.00000,1.00000,0.00000,9.06000,0
0.05000,-0.12000,0.93000,-101.30000,-4.10000,-5.15000,-100.14000,-4.23000,-5.37000,-1.17000,0.13000,0.22000,10.00000,1.00000,0.00000,10.05000,0
0.05000,-0.11000,0.94000,-102.40000,-3.90000,-4.75000,-100.39000,-4.23000,-5.32000,-2.01000,0.33000,0.57000,10.00000,1.00000,0.00000,10.05000,0
0.05000,-0.12000,0.94000,-100.70000,-4.55000,-6.45000,-100.23000,-4.27000,-5.43000,-0.47000,-0.28000,-1.02000,10.00000,1.00000,1.00000,10.10000,0
0.05000,-0.11000,0.95000,-96.85000,-5.15000,-4.90000,-99.84000,-4.40000,-5.36000,2.99000,-0.75000,0.46000,11.00000,1.00000,1.00000,11.09000,0
0.05000,-0.12000,0.94000,-102.40000,-3.25000,-6.00000,-100.28000,-4.14000,-5.48000,-2.12000,0.89000,-0.52000,13.00000,1.00000,0.00000,13.04000,0
0.05000,-0.11000,0.94000,-103.25000,-2.60000,-5.55000,-100.56000,-3.96000,-5.45000,-2.69000,1.36000,-0.10000,12.00000,2.00000,0.00000,12.17000,0
0.05000,-0.12000,0.94000,-99.60000,-3.95000,-5.15000,-100.42000,-3.95000,-5.46000,0.82000,0.00000,0.31000,12.00000,2.00000,0.00000,12.17000,0
0.05000,-0.11000,0.94000,-96.95000,-5.15000,-4.85000,-99.92000,-4.10000,-5.36000,2.97000,-1.05000,0.51000,16.00000,3.00000,1.00000,16.31000,0
0.05000,-0.11000,0.94000,-102.10000,-3.25000,-4.85000,-100.34000,-3.94000,-5.26000,-1.76000,0.69000,0.41000,15.00000,3.00000,1.00000,15.33000,0
0.05000,-0.11000,0.94000,-101.80000,-3.90000,-5.90000,-100.74000,-3.98000,-5.36000,-1.07000,0.08000,-0.55000,13.00000,3.00000,1.00000,13.38000,0
0.05000,-0.11000,0.94000,-99.35000,-3.10000,-5.40000,-100.54000,-3.88000,-5.38000,1.19000,0.78000,-0.02000,13.00000,3.00000,1.00000,13.38000,0
0.05000,-0.12000,0.95000,-99.40000,-4.90000,-6.45000,-100.24000,-3.98000,-5.55000,0.84000,-0.92000,-0.90000,13.00000,3.00000,0.00000,13.34000,0
0.05000,-0.12000,0.93000,-100.35000,-4.70000,-5.75000,-100.20000,-4.00000,-5.48000,-0.15000,-0.70000,-0.27000,13.00000,3.00000,0.00000,13.34000,0
0.05000,-0.12000,0.94000,-100.60000,-4.25000,-7.40000,-100.58000,-3.90000,-5.73000,-0.02000,-0.35000,-1.67000,10.00000,2.00000,1.00000,10.25000,0
0.05000,-0.11000,0.95000,-101.00000,-4.10000,-5.70000,-100.44000,-3.99000,-5.70000,-0.56000,-0.11000,0.00000,9.00000,2.00000,1.00000,9.27000,0
0.05000,-0.11000,0.94000,-100.20000,-5.00000,-5.20000,-100.13000,-4.23000,-5.66000,-0.07000,-0.77000,0.47000,5.00000,1.00000,1.00000,5.20000,0
0.05000,-0.11000,0.93000,-99.30000,-4.35000,-4.90000,-100.10000,-4.27000,-5.64000,0.80000,-0.08000,0.74000,5.00000,2.00000,1.00000,5.48000,0
0.04000,-0.11000,0.94000,-101.65000,-2.95000,-5.00000,-100.57000,-4.05000,-5.66000,-1.08000,1.10000,0.66000,6.00000,1.00000,1.00000,6.16000,0
0.05000,-0.11000,0.94000,-101.05000,-4.40000,-5.00000,-100.47000,-4.16000,-5.67000,-0.58000,-0.24000,0.67000,5.00000,2.00000,1.00000,5.48000,0
0.05000,-0.11000,0.95000,-99.35000,-4.45000,-5.35000,-100.22000,-4.22000,-5.62000,0.88000,-0.23000,0.27000,1.00000,2.00000,1.00000,2.45000,0
0.05000,-0.11000,0.94000,-98.50000,-4.55000,-5.00000,-100.14000,-4.37000,-5.57000,1.64000,-0.18000,0.57000,2.00000,1.00000,1.00000,2.45000,0
0.05000,-0.11000,0.94000,-102.05000,-2.95000,-5.85000,-100.40000,-4.17000,-5.51000,-1.65000,1.22000,-0.34000,5.00000,2.00000,1.00000,5.48000,0
0.05000,-0.12000,0.95000,-102.35000,-3.25000,-5.35000,-100.60000,-4.03000,-5.47000,-1.75000,0.78000,0.12000,7.00000,2.00000,1.00000,7.35000,0
0.05000,-0.11000,0.94000,-99.50000,-4.45000,-5.15000,-100.49000,-4.05000,-5.25000,0.99000,-0.40000,0.10000,6.00000,2.00000,0.00000,6.32000,0
0.05000,-0.12000,0.95000,-100.25000,-5.05000,-5.25000,-100.42000,-4.14000,-5.20000,0.17000,-0.91000,-0.05000,6.00000,2.00000,0.00000,6.32000,0
0.05000,-0.11000,0.94000,-101.15000,-3.90000,-5.05000,-100.51000,-4.03000,-5.19000,-0.64000,0.13000,0.14000,8.00000,3.00000,0.00000,8.54000,0
0.05000,-0.12000,0.94000,-101.10000,-4.05000,-4.85000,-100.69000,-4.00000,-5.18000,-0.40000,-0.05000,0.34000,6.00000,3.00000,0.00000,6.71000,0
0.05000,-0.12000,0.95000,-99.35000,-3.75000,-5.60000,-100.47000,-4.08000,-5.24000,1.12000,0.33000,-0.36000,5.00000,1.00000,0.00000,5.10000,0
0.05000,-0.12000,0.94000,-100.45000,-4.30000,-5.50000,-100.40000,-4.07000,-5.29000,-0.04000,-0.23000,-0.21000,5.00000,1.00000,0.00000,5.10000,0
0.05000,-0.11000,0.93000,-98.90000,-3.60000,-5.10000,-100.36000,-3.98000,-5.27000,1.46000,0.38000,0.17000,5.00000,2.00000,0.00000,5.39000,0
0.05000,-0.12000,0.94000,-100.10000,-4.40000,-5.25000,-100.52000,-3.97000,-5.30000,0.42000,-0.43000,0.05000,5.00000,2.00000,0.00000,5.39000,0
0.05000,-0.12000,0.94000,-100.70000,-4.10000,-5.30000,-100.39000,-4.09000,-5.24000,-0.31000,-0.01000,-0.06000,3.00000,0.00000,0.00000,3.00000,0
0.05000,-0.11000,0.93000,-100.50000,-4.30000,-4.35000,-100.20000,-4.19000,-5.14000,-0.30000,-0.11000,0.79000,1.00000,0.00000,0.00000,1.00000,0
0.05000,-0.11000,0.94000,-99.65000,-5.65000,-6.05000,-100.22000,-4.31000,-5.23000,0.57000,-1.34000,-0.82000,1.00000,1.00000,0.00000,1.41000,0
0.04000,-0.11000,0.94000,-102.50000,-3.30000,-5.95000,-100.44000,-4.14000,-5.30000,-2.06000,0.84000,-0.65000,4.00000,1.00000,0.00000,4.12000,0
0.04000,-0.12000,0.94000,-100.60000,-4.60000,-5.15000,-100.38000,-4.20000,-5.31000,-0.22000,-0.39000,0.16000,4.00000,1.00000,0.00000,4.12000,0
0.05000,-0.11000,0.94000,-98.60000,-5.80000,-5.95000,-100.13000,-4.38000,-5.42000,1.53000,-1.42000,-0.53000,4.00000,3.00000,1.00000,5.10000,0
0.05000,-0.11000,0.94000,-100.40000,-4.05000,-5.95000,-100.24000,-4.41000,-5.46000,-0.16000,0.36000,-0.49000,4.00000,3.00000,1.00000,5.10000,0
0.05000,-0.12000,0.94000,-103.10000,-4.35000,-5.30000,-100.50000,-4.41000,-5.44000,-2.60000,0.07000,0.14000,5.00000,3.00000,1.00000,5.92000,0
0.05000,-0.11000,0.93000,-100.15000,-4.00000,-5.45000,-100.63000,-4.45000,-5.47000,0.48000,0.45000,0.02000,5.00000,3.00000,1.00000,5.92000,0
0.05000,-0.12000,0.94000,-97.55000,-5.00000,-5.55000,-100.37000,-4.51000,-5.50000,2.82000,-0.49000,-0.05000,7.00000,3.00000,1.00000,7.68000,0
0.04000,-0.11000,0.94000,-100.60000,-3.85000,-5.55000,-100.36000,-4.49000,-5.52000,-0.24000,0.64000,-0.03000,7.00000,3.00000,1.00000,7.68000,0
0.05000,-0.11000,0.94000,-101.85000,-3.90000,-4.30000,-100.50000,-4.45000,-5.52000,-1.35000,0.55000,1.22000,8.00000,3.00000,1.00000,8.60000,0
0.05000,-0.12000,0.94000,-100.55000,-4.00000,-5.15000,-100.59000,-4.29000,-5.43000,0.04000,0.29000,0.28000,8.00000,1.00000,1.00000,8.12000,0
0.06000,-0.12000,0.94000,-100.35000,-5.20000,-5.15000,-100.37000,-4.47000,-5.35000,0.02000,-0.72000,0.20000,6.00000,1.00000,1.00000,6.16000,0
0.05000,-0.11000,0.94000,-99.60000,-4.75000,-5.50000,-100.27000,-4.49000,-5.39000,0.67000,-0.26000,-0.11000,6.00000,1.00000,1.00000,6.16000,0
0.04000,-0.12000,0.94000,-100.45000,-3.80000,-5.25000,-100.46000,-4.29000,-5.32000,0.01000,0.49000,0.07000,5.00000,0.00000,1.00000,5.10000,0
0.05000,-0.11000,0.94000,-101.70000,-4.35000,-5.35000,-100.59000,-4.32000,-5.25000,-1.11000,-0.03000,-0.10000,7.00000,0.00000,0.00000,7.00000,0
0.05000,-0.12000,0.94000,-100.85000,-3.30000,-5.50000,-100.36000,-4.21000,-5.27000,-0.49000,0.91000,-0.23000,4.00000,0.00000,0.00000,4.00000,0
0.05000,-0.12000,0.94000,-97.70000,-5.05000,-5.30000,-100.12000,-4.32000,-5.26000,2.42000,-0.73000,-0.04000,6.00000,1.00000,0.00000,6.08000,0
0.05000,-0.12000,0.94000,-100.50000,-4.10000,-4.65000,-100.42000,-4.23000,-5.17000,-0.08000,0.13000,0.52000,4.00000,0.00000,0.00000,4.00000,0
0.05000,-0.12000,0.94000,-103.15000,-3.95000,-5.70000,-100.67000,-4.24000,-5.19000,-2.48000,0.29000,-0.51000,7.00000,0.00000,0.00000,7.00000,0
0.05000,-0.12000,0.94000,-99.85000,-3.40000,-5.70000,-100.47000,-4.19000,-5.33000,0.62000,0.79000,-0.37000,5.00000,1.00000,0.00000,5.10000,0
0.04000,-0.11000,0.94000,-98.75000,-4.80000,-5.10000,-100.29000,-4.27000,-5.32000,1.54000,-0.53000,0.22000,6.00000,0.00000,0.00000,6.00000,0
0.05000,-0.11000,0.94000,-99.75000,-3.15000,-4.75000,-100.23000,-4.07000,-5.28000,0.48000,0.91000,0.53000,6.00000,0.00000,0.00000,6.00000,0
0.05000,-0.12000,0.93000,-101.30000,-3.75000,-5.65000,-100.40000,-3.97000,-5.30000,-0.90000,0.22000,-0.36000,6.00000,1.00000,0.00000,6.08000,0
0.05000,-0.11000,0.94000,-101.25000,-4.35000,-5.75000,-100.48000,-4.02000,-5.35000,-0.77000,-0.33000,-0.40000,6.00000,1.00000,0.00000,6.08000,0
0.05000,-0.11000,0.94000,-99.35000,-3.85000,-6.00000,-100.24000,-3.97000,-5.41000,0.89000,0.12000,-0.59000,7.00000,1.00000,0.00000,7.07000,0
0.05000,-0.11000,0.94000,-98.25000,-4.05000,-5.45000,-99.99000,-4.04000,-5.41000,1.74000,-0.01000,-0.04000,9.00000,1.00000,0.00000,9.06000,0
0.05000,-0.12000,0.94000,-99.90000,-4.00000,-5.40000,-100.21000,-3.94000,-5.41000,0.31000,-0.06000,0.01000,6.00000,0.00000,0.00000,6.00000,0
0.04000,-0.12000,0.94000,-101.40000,-3.70000,-5.20000,-100.29000,-3.90000,-5.47000,-1.11000,0.20000,0.27000,7.00000,0.00000,0.00000,7.00000,0
0.04000,-0.12000,0.94000,-100.50000,-3.95000,-5.60000,-100.03000,-3.90000,-5.46000,-0.47000,-0.05000,-0.14000,5.00000,0.00000,0.00000,5.00000,0
0.05000,-0.11000,0.93000,-100.45000,-4.30000,-5.25000,-100.09000,-3.99000,-5.41000,-0.36000,-0.31000,0.16000,5.00000,0.00000,0.00000,5.00000,0
0.06000,-0.12000,0.94000,-99.70000,-3.25000,-5.05000,-100.19000,-3.84000,-5.41000,0.49000,0.59000,0.36000,4.00000,0.00000,0.00000,4.00000,0
0.05000,-0.11000,0.93000,-100.10000,-4.40000,-5.40000,-100.22000,-3.96000,-5.47000,0.12000,-0.44000,0.07000,4.00000,0.00000,0.00000,4.00000,0
0.05000,-0.11000,0.93000,-100.65000,-4.25000,-5.90000,-100.16000,-4.01000,-5.50000,-0.49000,-0.24000,-0.40000,3.00000,0.00000,0.00000,3.00000,0
0.05000,-0.11000,0.94000,-101.80000,-4.30000,-5.20000,-100.21000,-4.01000,-5.45000,-1.59000,-0.30000,0.25000,3.00000,0.00000,0.00000,3.00000,0
0.05000,-0.12000,0.94000,-99.25000,-5.50000,-5.80000,-100.20000,-4.17000,-5.43000,0.95000,-1.33000,-0.37000,3.00000,1.00000,0.00000,3.16000,0
0.05000,-0.12000,0.93000,-99.10000,-4.55000,-4.55000,-100.28000,-4.22000,-5.34000,1.18000,-0.33000,0.78000,4.00000,1.00000,0.00000,4.12000,0
0.05000,-0.12000,0.94000,-101.90000,-3.60000,-6.05000,-100.49000,-4.18000,-5.40000,-1.42000,0.58000,-0.65000,4.00000,1.00000,0.00000,4.12000,0
0.05000,-0.12000,0.94000,-101.25000,-4.20000,-4.80000,-100.47000,-4.23000,-5.36000,-0.78000,0.03000,0.56000,4.00000,1.00000,0.00000,4.12000,0
0.05000,-0.12000,0.94000,-100.80000,-4.15000,-5.90000,-100.50000,-4.25000,-5.39000,-0.30000,0.10000,-0.51000,4.00000,2.00000,0.00000,4.47000,0
0.05000,-0.12000,0.94000,-100.20000,-4.40000,-5.55000,-100.47000,-4.26000,-5.42000,0.28000,-0.14000,-0.13000,4.00000,2.00000,0.00000,4.47000,0
0.05000,-0.11000,0.94000,-99.90000,-4.65000,-4.75000,-100.50000,-4.40000,-5.39000,0.60000,-0.25000,0.64000,4.00000,1.00000,0.00000,4.12000,0
0.05000,-0.12000,0.93000,-100.40000,-4.45000,-5.95000,-100.53000,-4.41000,-5.45000,0.13000,-0.04000,-0.50000,4.00000,1.00000,0.00000,4.12000,0
0.05000,-0.11000,0.94000,-103.40000,-3.15000,-5.75000,-100.80000,-4.30000,-5.43000,-2.60000,1.15000,-0.32000,6.00000,2.00000,0.00000,6.32000,0
0.05000,-0.12000,0.94000,-101.15000,-5.80000,-6.00000,-100.74000,-4.44000,-5.51000,-0.41000,-1.36000,-0.49000,5.00000,3.00000,0.00000,5.83000,0
0.04000,-0.12000,0.94000,-96.60000,-5.55000,-5.10000,-100.47000,-4.45000,-5.44000,3.87000,-1.10000,0.34000,7.00000,3.00000,0.00000,7.62000,0
0.05000,-0.12000,0.94000,-100.45000,-4.95000,-6.05000,-100.61000,-4.49000,-5.59000,0.16000,-0.46000,-0.46000,7.00000,3.00000,0.00000,7.62000,0
0.05000,-0.11000,0.94000,-104.05000,-3.45000,-5.45000,-100.82000,-4.47000,-5.53000,-3.23000,1.02000,0.08000,9.00000,4.00000,0.00000,9.85000,0
0.05000,-0.12000,0.94000,-99.65000,-3.05000,-5.10000,-100.66000,-4.36000,-5.56000,1.01000,1.31000,0.46000,10.00000,4.00000,0.00000,10.77000,0
0.05000,-0.12000,0.94000,-96.95000,-3.35000,-5.50000,-100.28000,-4.28000,-5.52000,3.33000,0.93000,0.02000,12.00000,4.00000,0.00000,12.65000,0
0.05000,-0.11000,0.94000,-102.30000,-4.65000,-4.85000,-100.49000,-4.30000,-5.45000,-1.82000,-0.35000,0.60000,12.00000,4.00000,0.00000,12.65000,0
0.05000,-0.12000,0.94000,-103.25000,-3.70000,-5.05000,-100.82000,-4.21000,-5.48000,-2.43000,0.51000,0.43000,16.00000,4.00000,0.00000,16.49000,0
0.05000,-0.12000,0.94000,-98.40000,-5.20000,-4.50000,-100.62000,-4.29000,-5.34000,2.22000,-0.91000,0.84000,17.00000,4.00000,0.00000,17.46000,0
0.05000,-0.12000,0.94000,-98.05000,-3.85000,-5.45000,-100.08000,-4.36000,-5.31000,2.03000,0.51000,-0.14000,18.00000,4.00000,0.00000,18.44000,0
0.05000,-0.12000,0.94000,-101.45000,-3.90000,-4.85000,-100.11000,-4.16000,-5.19000,-1.33000,0.26000,0.34000,18.00000,3.00000,0.00000,18.25000,0
0.05000,-0.11000,0.94000,-99.75000,-4.00000,-5.15000,-100.43000,-4.01000,-5.20000,0.68000,0.01000,0.05000,14.00000,1.00000,0.00000,14.04000,0
0.05000,-0.12000,0.93000,-99.00000,-4.45000,-5.10000,-100.29000,-3.96000,-5.10000,1.29000,-0.49000,0.00000,15.00000,1.00000,0.00000,15.03000,0
0.05000,-0.12000,0.94000,-101.00000,-4.40000,-5.40000,-99.98000,-4.05000,-5.10000,-1.02000,-0.35000,-0.30000,12.00000,2.00000,0.00000,12.17000,0
0.05000,-0.12000,0.94000,-100.45000,-4.95000,-6.35000,-100.06000,-4.24000,-5.22000,-0.39000,-0.70000,-1.13000,13.00000,0.00000,1.00000,13.04000,0
0.05000,-0.11000,0.94000,-101.25000,-4.10000,-6.05000,-100.49000,-4.32000,-5.27000,-0.76000,0.22000,-0.78000,8.00000,0.00000,1.00000,8.06000,0
0.05000,-0.11000,0.93000,-100.30000,-5.25000,-5.55000,-100.29000,-4.38000,-5.34000,-0.01000,-0.87000,-0.21000,7.00000,0.00000,1.00000,7.07000,0
0.05000,-0.12000,0.94000,-98.40000,-3.65000,-6.45000,-99.81000,-4.37000,-5.48000,1.41000,0.72000,-0.97000,6.00000,0.00000,0.00000,6.00000,0
0.05000,-0.12000,0.94000,-100.70000,-4.45000,-5.10000,-100.04000,-4.30000,-5.54000,-0.66000,-0.15000,0.44000,5.00000,0.00000,0.00000,5.00000,0
0.05000,-0.11000,0.94000,-103.30000,-3.10000,-5.15000,-100.56000,-4.22000,-5.52000,-2.74000,1.12000,0.37000,5.00000,2.00000,0.00000,5.39000,0
0.05000,-0.11000,0.94000,-99.80000,-3.70000,-5.65000,-100.40000,-4.20000,-5.60000,0.60000,0.50000,-0.05000,4.00000,2.00000,0.00000,4.47000,0
0.05000,-0.12000,0.93000,-97.85000,-5.30000,-6.05000,-100.21000,-4.34000,-5.69000,2.36000,-0.97000,-0.36000,8.00000,1.00000,0.00000,8.06000,0
0.05000,-0.11000,0.94000,-101.95000,-3.75000,-5.75000,-100.50000,-4.26000,-5.75000,-1.45000,0.51000,0.00000,7.00000,2.00000,0.00000,7.28000,0
0.04000,-0.12000,0.95000,-103.10000,-3.65000,-5.10000,-100.71000,-4.19000,-5.72000,-2.39000,0.54000,0.62000,9.00000,3.00000,0.00000,9.49000,0
0.05000,-0.12000,0.94000,-98.35000,-4.85000,-5.30000,-100.50000,-4.18000,-5.61000,2.15000,-0.67000,0.31000,11.00000,3.00000,0.00000,11.40000,0
0.05000,-0.12000,0.95000,-99.05000,-4.70000,-5.60000,-100.28000,-4.24000,-5.57000,1.23000,-0.46000,-0.03000,11.00000,3.00000,0.00000,11.40000,0
0.05000,-0.12000,0.94000,-100.90000,-4.30000,-5.55000,-100.34000,-4.14000,-5.57000,-0.56000,-0.16000,0.02000,10.00000,2.00000,0.00000,10.20000,0
0.05000,-0.12000,0.94000,-102.35000,-4.35000,-4.90000,-100.73000,-4.21000,-5.41000,-1.62000,-0.14000,0.51000,11.00000,2.00000,0.00000,11.18000,0
0.05000,-0.12000,0.94000,-100.70000,-4.70000,-4.95000,-100.74000,-4.24000,-5.40000,0.04000,-0.46000,0.45000,11.00000,2.00000,0.00000,11.18000,0
0.05000,-0.12000,0.95000,-100.05000,-4.75000,-5.95000,-100.41000,-4.40000,-5.48000,0.36000,-0.35000,-0.47000,9.00000,0.00000,0.00000,9.00000,0
0.04000,-0.11000,0.93000,-99.50000,-4.65000,-4.30000,-100.38000,-4.50000,-5.35000,0.88000,-0.15000,1.05000,9.00000,0.00000,1.00000,9.06000,0
0.05000,-0.11000,0.94000,-100.70000,-3.30000,-5.45000,-100.67000,-4.30000,-5.29000,-0.03000,1.00000,-0.16000,8.00000,1.00000,0.00000,8.06000,0
0.05000,-0.12000,0.94000,-102.75000,-2.65000,-5.15000,-100.75000,-4.19000,-5.22000,-2.00000,1.54000,0.07000,9.00000,1.00000,0.00000,9.06000,0
0.05000,-0.12000,0.94000,-100.50000,-4.00000,-5.35000,-100.49000,-4.22000,-5.25000,-0.01000,0.22000,-0.10000,6.00000,1.00000,0.00000,6.08000,0
0.05000,-0.12000,0.94000,-97.10000,-5.15000,-5.20000,-100.36000,-4.26000,-5.24000,3.26000,-0.89000,0.04000,7.00000,1.00000,0.00000,7.07000,0
0.05000,-0.12000,0.94000,-100.95000,-3.90000,-5.15000,-100.55000,-4.18000,-5.20000,-0.40000,0.28000,0.05000,7.00000,1.00000,0.00000,7.07000,0
0.05000,-0.12000,0.95000,-101.90000,-4.15000,-4.85000,-100.65000,-4.16000,-5.12000,-1.25000,0.01000,0.28000,8.00000,1.00000,0.00000,8.06000,0
0.05000,-0.12000,0.94000,-100.60000,-4.00000,-4.85000,-100.47000,-4.12000,-5.12000,-0.13000,0.13000,0.27000,6.00000,2.00000,0.00000,6.32000,0
0.05000,-0.12000,0.94000,-98.90000,-4.75000,-6.05000,-100.29000,-4.13000,-5.23000,1.39000,-0.62000,-0.82000,7.00000,2.00000,0.00000,7.28000,0
0.04000,-0.12000,0.94000,-99.15000,-4.30000,-4.60000,-100.21000,-4.09000,-5.09000,1.06000,-0.22000,0.49000,8.00000,2.00000,0.00000,8.25000,0
0.04000,-0.12000,0.94000,-101.55000,-3.75000,-5.20000,-100.41000,-4.00000,-5.18000,-1.14000,0.25000,-0.01000,9.00000,2.00000,0.00000,9.22000,0
0.05000,-0.11000,0.95000,-102.55000,-4.55000,-5.40000,-100.60000,-4.12000,-5.18000,-1.96000,-0.43000,-0.22000,9.00000,2.00000,0.00000,9.22000,0
0.06000,-0.11000,0.94000,-99.80000,-4.60000,-6.35000,-100.30000,-4.31000,-5.30000,0.50000,-0.29000,-1.05000,9.00000,0.00000,1.00000,9.06000,0
0.05000,-0.11000,0.94000,-98.45000,-4.70000,-5.50000,-100.09000,-4.38000,-5.32000,1.64000,-0.32000,-0.18000,8.00000,0.00000,1.00000,8.06000,0
0.05000,-0.12000,0.94000,-100.90000,-4.75000,-6.25000,-100.47000,-4.34000,-5.42000,-0.43000,-0.41000,-0.83000,8.00000,0.00000,0.00000,8.00000,0
0.05000,-0.12000,0.94000,-103.60000,-3.95000,-5.95000,-100.74000,-4.35000,-5.50000,-2.86000,0.40000,-0.45000,8.00000,0.00000,0.00000,8.00000,0
0.05000,-0.12000,0.94000,-100.60000,-5.15000,-5.00000,-100.61000,-4.45000,-5.52000,0.01000,-0.70000,0.52000,7.00000,0.00000,0.00000,7.00000,0
0.05000,-0.12000,0.94000,-97.50000,-4.15000,-5.50000,-100.30000,-4.47000,-5.58000,2.80000,0.32000,0.08000,11.00000,0.00000,0.00000,11.00000,0
0.05000,-0.11000,0.94000,-100.55000,-4.90000,-5.45000,-100.46000,-4.48000,-5.52000,-0.09000,-0.42000,0.07000,11.00000,0.00000,0.00000,11.00000,0
0.05000,-0.12000,0.95000,-100.75000,-4.10000,-5.05000,-100.62000,-4.46000,-5.57000,-0.13000,0.36000,0.51000,8.00000,0.00000,0.00000,8.00000,0
0.04000,-0.12000,0.94000,-99.95000,-4.05000,-5.40000,-100.46000,-4.49000,-5.59000,0.51000,0.44000,0.18000,9.00000,0.00000,0.00000,9.00000,0
0.05000,-0.12000,0.93000,-100.85000,-4.30000,-5.25000,-100.29000,-4.46000,-5.57000,-0.56000,0.16000,0.32000,6.00000,0.00000,0.00000,6.00000,0
0.05000,-0.12000,0.94000,-98.95000,-4.35000,-5.35000,-100.21000,-4.44000,-5.47000,1.26000,0.09000,0.12000,7.00000,0.00000,0.00000,7.00000,0
0.06000,-0.11000,0.94000,-98.10000,-5.40000,-6.00000,-100.18000,-4.51000,-5.52000,2.08000,-0.89000,-0.48000,8.00000,0.00000,0.00000,8.00000,0
0.05000,-0.11000,0.94000,-101.95000,-3.90000,-5.10000,-100.28000,-4.43000,-5.40000,-1.67000,0.53000,0.30000,9.00000,0.00000,0.00000,9.00000,0
0.04000,-0.12000,0.94000,-103.75000,-3.50000,-5.40000,-100.29000,-4.38000,-5.35000,-3.46000,0.88000,-0.05000,9.00000,1.00000,0.00000,9.06000,0
0.05000,-0.12000,0.94000,-97.35000,-4.65000,-5.65000,-99.97000,-4.33000,-5.41000,2.62000,-0.32000,-0.24000,10.00000,1.00000,0.00000,10.05000,0
0.05000,-0.12000,0.93000,-98.25000,-4.90000,-6.25000,-100.04000,-4.41000,-5.49000,1.79000,-0.49000,-0.76000,9.00000,0.00000,0.00000,9.00000,0
0.04000,-0.11000,0.94000,-103.00000,-3.15000,-4.85000,-100.29000,-4.23000,-5.43000,-2.71000,1.08000,0.58000,13.00000,2.00000,0.00000,13.15000,0
0.05000,-0.11000,0.95000,-101.40000,-3.50000,-4.65000,-100.35000,-4.17000,-5.39000,-1.05000,0.67000,0.74000,15.00000,2.00000,0.00000,15.13000,0
0.05000,-0.12000,0.93000,-97.85000,-4.80000,-5.35000,-100.14000,-4.24000,-5.38000,2.29000,-0.56000,0.03000,15.00000,2.00000,0.00000,15.13000,0
0.05000,-0.12000,0.94000,-100.20000,-4.20000,-4.65000,-100.08000,-4.23000,-5.32000,-0.12000,0.03000,0.67000,14.00000,2.00000,0.00000,14.14000,0
0.05000,-0.11000,0.94000,-102.75000,-3.45000,-4.60000,-100.46000,-4.14000,-5.25000,-2.29000,0.69000,0.65000,17.00000,1.00000,1.00000,17.06000,0
0.05000,-0.12000,0.95000,-99.25000,-4.45000,-4.55000,-100.57000,-4.05000,-5.11000,1.32000,-0.40000,0.55000,16.00000,0.00000,1.00000,16.03000,0
0.05000,-0.11000,0.94000,-100.35000,-3.90000,-4.75000,-100.41000,-4.05000,-5.07000,0.06000,0.15000,0.32000,15.00000,0.00000,1.00000,15.03000,0
0.05000,-0.11000,0.93000,-101.40000,-3.70000,-5.05000,-100.18000,-4.07000,-5.03000,-1.22000,0.37000,-0.02000,11.00000,0.00000,1.00000,11.05000,0
0.04000,-0.11000,0.94000,-100.55000,-4.65000,-6.40000,-100.50000,-4.07000,-5.11000,-0.05000,-0.58000,-1.29000,9.00000,0.00000,2.00000,9.22000,0
0.05000,-0.11000,0.94000,-99.00000,-4.15000,-5.30000,-100.57000,-4.00000,-5.02000,1.57000,-0.15000,-0.28000,8.00000,0.00000,1.00000,8.06000,0
0.05000,-0.12000,0.94000,-101.05000,-3.25000,-5.40000,-100.38000,-4.01000,-5.07000,-0.67000,0.76000,-0.33000,8.00000,0.00000,1.00000,8.06000,0
0.05000,-0.12000,0.93000,-100.85000,-3.25000,-5.10000,-100.32000,-3.98000,-5.12000,-0.53000,0.73000,0.02000,7.00000,0.00000,1.00000,7.07000,0
0.05000,-0.11000,0.94000,-99.85000,-3.80000,-5.60000,-100.52000,-3.88000,-5.14000,0.67000,0.08000,-0.46000,4.00000,0.00000,1.00000,4.12000,0
0.05000,-0.12000,0.94000,-102.55000,-3.85000,-5.15000,-100.76000,-3.84000,-5.19000,-1.79000,-0.01000,0.04000,4.00000,0.00000,1.00000,4.12000,0
0.05000,-0.11000,0.94000,-102.20000,-4.70000,-4.85000,-100.70000,-3.97000,-5.21000,-1.50000,-0.73000,0.36000,4.00000,0.00000,1.00000,4.12000,0
0.05000,-0.12000,0.94000,-97.40000,-4.70000,-5.40000,-100.52000,-4.00000,-5.30000,3.12000,-0.70000,-0.10000,7.00000,0.00000,1.00000,7.07000,0
0.05000,-0.11000,0.94000,-101.65000,-4.80000,-4.60000,-100.65000,-4.09000,-5.28000,-1.00000,-0.72000,0.68000,6.00000,0.00000,1.00000,6.08000,0
0.05000,-0.12000,0.95000,-101.80000,-4.75000,-5.35000,-100.69000,-4.19000,-5.31000,-1.11000,-0.56000,-0.04000,7.00000,0.00000,1.00000,7.07000,0
0.05000,-0.11000,0.94000,-98.85000,-3.50000,-5.55000,-100.52000,-4.07000,-5.23000,1.67000,0.57000,-0.32000,10.00000,0.00000,0.00000,10.00000,0
0.05000,-0.11000,0.95000,-98.45000,-4.95000,-5.45000,-100.47000,-4.15000,-5.24000,2.02000,-0.80000,-0.20000,11.00000,0.00000,0.00000,11.00000,0
0.05000,-0.11000,0.94000,-103.10000,-3.60000,-6.05000,-100.67000,-4.19000,-5.31000,-2.43000,0.59000,-0.74000,11.00000,0.00000,0.00000,11.00000,0
0.05000,-0.12000,0.94000,-101.00000,-3.05000,-5.80000,-100.68000,-4.17000,-5.38000,-0.32000,1.12000,-0.42000,11.00000,1.00000,0.00000,11.05000,0
0.04000,-0.12000,0.94000,-98.95000,-3.60000,-5.25000,-100.59000,-4.15000,-5.35000,1.64000,0.55000,0.10000,13.00000,1.00000,0.00000,13.04000,0
0.05000,-0.11000,0.94000,-100.20000,-4.15000,-5.70000,-100.36000,-4.18000,-5.40000,0.16000,0.03000,-0.30000,10.00000,1.00000,0.00000,10.05000,0
0.05000,-0.11000,0.94000,-101.65000,-4.20000,-5.30000,-100.31000,-4.13000,-5.45000,-1.34000,-0.07000,0.14000,10.00000,1.00000,0.00000,10.05000,0
0.05000,-0.12000,0.94000,-99.10000,-4.75000,-5.75000,-100.47000,-4.14000,-5.48000,1.37000,-0.61000,-0.27000,10.00000,1.00000,0.00000,10.05000,0
0.05000,-0.12000,0.94000,-100.05000,-5.00000,-4.65000,-100.31000,-4.15000,-5.48000,0.26000,-0.85000,0.83000,8.00000,1.00000,0.00000,8.06000,0
0.05000,-0.12000,0.94000,-100.30000,-3.30000,-4.95000,-100.16000,-4.01000,-5.45000,-0.14000,0.71000,0.50000,7.00000,0.00000,0.00000,7.00000,0
0.05000,-0.11000,0.94000,-100.20000,-3.75000,-5.10000,-100.30000,-4.03000,-5.40000,0.10000,0.28000,0.30000,6.00000,0.00000,0.00000,6.00000,0
0.05000,-0.11000,0.94000,-99.95000,-4.50000,-4.85000,-100.45000,-3.99000,-5.34000,0.50000,-0.51000,0.49000,5.00000,1.00000,0.00000,5.10000,0
0.05000,-0.12000,0.94000,-99.85000,-3.95000,-5.20000,-100.12000,-4.03000,-5.26000,0.28000,0.08000,0.06000,3.00000,0.00000,0.00000,3.00000,0
0.05000,-0.12000,0.94000,-100.55000,-3.70000,-5.55000,-100.08000,-4.09000,-5.23000,-0.47000,0.39000,-0.32000,2.00000,0.00000,0.00000,2.00000,0
0.05000,-0.12000,0.94000,-99.90000,-4.55000,-5.50000,-100.18000,-4.18000,-5.26000,0.28000,-0.37000,-0.24000,2.00000,0.00000,0.00000,2.00000,0
0.05000,-0.12000,0.94000,-101.75000,-4.05000,-5.10000,-100.33000,-4.18000,-5.20000,-1.42000,0.13000,0.10000,3.00000,0.00000,0.00000,3.00000,0
0.05000,-0.11000,0.94000,-98.55000,-4.50000,-5.40000,-100.02000,-4.20000,-5.20000,1.47000,-0.30000,-0.20000,2.00000,0.00000,0.00000,2.00000,0
0.05000,-0.11000,0.94000,-98.25000,-4.75000,-5.45000,-99.94000,-4.20000,-5.18000,1.69000,-0.55000,-0.27000,3.00000,0.00000,0.00000,3.00000,0
0.05000,-0.10000,0.94000,-103.10000,-2.65000,-5.85000,-100.24000,-3.97000,-5.29000,-2.86000,1.32000,-0.56000,5.00000,1.00000,0.00000,5.10000,0
0.05000,-0.12000,0.94000,-104.10000,-3.60000,-4.95000,-100.62000,-4.00000,-5.30000,-3.48000,0.40000,0.35000,10.00000,1.00000,0.00000,10.05000,0
0.05000,-0.12000,0.94000,-98.90000,-4.45000,-5.25000,-100.49000,-4.07000,-5.31000,1.59000,-0.38000,0.06000,10.00000,1.00000,0.00000,10.05000,0
0.05000,-0.11000,0.94000,-96.80000,-4.15000,-5.60000,-100.17000,-4.04000,-5.38000,3.37000,-0.11000,-0.22000,12.00000,1.00000,0.00000,12.04000,0
0.05000,-0.12000,0.93000,-101.35000,-3.60000,-5.80000,-100.32000,-4.00000,-5.44000,-1.03000,0.40000,-0.36000,14.00000,1.00000,0.00000,14.04000,0
0.06000,-0.11000,0.94000,-102.10000,-4.20000,-5.25000,-100.48000,-4.05000,-5.41000,-1.62000,-0.15000,0.16000,14.00000,1.00000,0.00000,14.04000,0
0.05000,-0.11000,0.94000,-99.70000,-4.45000,-5.05000,-100.46000,-4.04000,-5.37000,0.76000,-0.41000,0.32000,14.00000,1.00000,0.00000,14.04000,0
0.04000,-0.12000,0.95000,-99.05000,-5.00000,-5.20000,-100.19000,-4.14000,-5.38000,1.14000,-0.86000,0.18000,14.00000,1.00000,0.00000,14.04000,0
0.05000,-0.12000,0.94000,-99.60000,-4.55000,-5.40000,-100.29000,-4.14000,-5.38000,0.69000,-0.41000,-0.02000,14.00000,1.00000,0.00000,14.04000,0
0.05000,-0.11000,0.94000,-99.90000,-4.20000,-5.60000,-100.46000,-4.09000,-5.39000,0.56000,-0.11000,-0.20000,11.00000,1.00000,0.00000,11.05000,0
0.04000,-0.11000,0.94000,-101.85000,-3.40000,-4.55000,-100.33000,-4.16000,-5.26000,-1.51000,0.76000,0.71000,11.00000,0.00000,0.00000,11.00000,0
0.05000,-0.12000,0.94000,-102.05000,-3.25000,-5.40000,-100.13000,-4.13000,-5.31000,-1.92000,0.88000,-0.09000,9.00000,0.00000,0.00000,9.00000,0
0.05000,-0.11000,0.93000,-100.05000,-5.75000,-4.70000,-100.24000,-4.26000,-5.26000,0.19000,-1.49000,0.56000,8.00000,2.00000,0.00000,8.25000,0
0.05000,-0.11000,0.93000,-100.00000,-5.05000,-4.70000,-100.56000,-4.35000,-5.16000,0.56000,-0.70000,0.47000,4.00000,2.00000,0.00000,4.47000,0
0.06000,-0.11000,0.94000,-101.45000,-3.10000,-4.90000,-100.57000,-4.30000,-5.08000,-0.88000,1.20000,0.18000,4.00000,3.00000,0.00000,5.00000,0
0.05000,-0.12000,0.95000,-103.30000,-3.25000,-5.50000,-100.69000,-4.20000,-5.10000,-2.61000,0.95000,-0.40000,6.00000,2.00000,0.00000,6.32000,0
0.04000,-0.11000,0.93000,-99.80000,-5.05000,-4.30000,-100.71000,-4.26000,-5.03000,0.90000,-0.79000,0.72000,6.00000,4.00000,0.00000,7.21000,0
0.05000,-0.11000,0.94000,-98.10000,-4.90000,-5.20000,-100.61000,-4.25000,-5.03000,2.51000,-0.65000,-0.17000,7.00000,4.00000,0.00000,8.06000,0
0.05000,-0.11000,0.94000,-101.55000,-4.05000,-5.30000,-100.80000,-4.20000,-5.01000,-0.75000,0.15000,-0.29000,7.00000,2.00000,0.00000,7.28000,0
0.06000,-0.11000,0.95000,-103.35000,-3.10000,-6.00000,-101.15000,-4.09000,-5.05000,-2.20000,0.99000,-0.95000,10.00000,1.00000,0.00000,10.05000,0
0.05000,-0.12000,0.95000,-101.95000,-3.75000,-5.10000,-101.16000,-4.12000,-5.11000,-0.79000,0.37000,0.01000,10.00000,3.00000,0.00000,10.44000,0
0.05000,-0.12000,0.93000,-98.45000,-4.60000,-4.80000,-100.80000,-4.26000,-5.05000,2.35000,-0.34000,0.25000,9.00000,4.00000,0.00000,9.85000,0
0.04000,-0.12000,0.93000,-99.05000,-5.35000,-6.00000,-100.70000,-4.22000,-5.18000,1.65000,-1.13000,-0.82000,10.00000,3.00000,0.00000,10.44000,0
0.05000,-0.12000,0.94000,-100.60000,-3.30000,-5.10000,-100.76000,-4.04000,-5.22000,0.16000,0.74000,0.12000,10.00000,2.00000,0.00000,10.20000,0
0.05000,-0.12000,0.93000,-102.50000,-4.00000,-5.25000,-100.86000,-4.13000,-5.26000,-1.64000,0.13000,0.01000,12.00000,2.00000,0.00000,12.17000,0
0.04000,-0.12000,0.94000,-100.15000,-3.45000,-5.70000,-100.55000,-4.16000,-5.28000,0.40000,0.71000,-0.42000,10.00000,2.00000,0.00000,10.20000,0
0.04000,-0.11000,0.93000,-97.70000,-5.15000,-6.75000,-100.34000,-4.17000,-5.52000,2.64000,-0.98000,-1.23000,13.00000,2.00000,1.00000,13.19000,0
0.05000,-0.11000,0.94000,-99.55000,-4.25000,-5.35000,-100.49000,-4.10000,-5.53000,0.93000,-0.15000,0.18000,11.00000,3.00000,1.00000,11.45000,0
0.05000,-0.11000,0.94000,-103.85000,-3.60000,-4.85000,-100.72000,-4.05000,-5.49000,-3.13000,0.45000,0.64000,14.00000,2.00000,1.00000,14.18000,0
0.05000,-0.12000,0.94000,-102.45000,-4.00000,-5.25000,-100.62000,-4.14000,-5.41000,-1.82000,0.14000,0.16000,12.00000,2.00000,1.00000,12.21000,0
0.06000,-0.11000,0.94000,-97.10000,-6.65000,-5.55000,-100.14000,-4.44000,-5.46000,3.04000,-2.21000,-0.09000,14.00000,3.00000,1.00000,14.35000,0
0.05000,-0.11000,0.93000,-98.65000,-4.35000,-5.95000,-100.16000,-4.41000,-5.57000,1.51000,0.06000,-0.37000,14.00000,3.00000,1.00000,14.35000,0
0.05000,-0.11000,0.93000,-103.50000,-4.30000,-5.75000,-100.60000,-4.30000,-5.55000,-2.90000,0.00000,-0.20000,14.00000,3.00000,1.00000,14.35000,0
0.05000,-0.12000,0.94000,-101.80000,-3.75000,-4.45000,-100.72000,-4.35000,-5.49000,-1.08000,0.60000,1.04000,17.00000,2.00000,2.00000,17.23000,0
0.05000,-0.11000,0.94000,-98.90000,-4.35000,-4.50000,-100.37000,-4.38000,-5.41000,1.47000,0.03000,0.91000,16.00000,2.00000,1.00000,16.16000,0
0.05000,-0.11000,0.94000,-97.80000,-4.80000,-5.95000,-100.13000,-4.52000,-5.44000,2.33000,-0.28000,-0.51000,18.00000,2.00000,1.00000,18.14000,0
0.04000,-0.12000,0.94000,-101.65000,-4.00000,-4.70000,-100.53000,-4.40000,-5.23000,-1.12000,0.40000,0.53000,15.00000,2.00000,0.00000,15.13000,0
0.05000,-0.11000,0.93000,-102.05000,-4.15000,-5.70000,-100.78000,-4.40000,-5.27000,-1.28000,0.25000,-0.43000,16.00000,2.00000,0.00000,16.12000,0
0.05000,-0.12000,0.94000,-101.25000,-3.70000,-4.80000,-100.51000,-4.41000,-5.26000,-0.74000,0.71000,0.46000,13.00000,2.00000,0.00000,13.15000,0
0.05000,-0.12000,0.94000,-99.50000,-4.20000,-5.30000,-100.22000,-4.43000,-5.27000,0.72000,0.23000,-0.03000,14.00000,2.00000,0.00000,14.14000,0
0.05000,-0.11000,0.94000,-99.40000,-4.65000,-5.25000,-100.45000,-4.22000,-5.23000,1.05000,-0.43000,-0.02000,11.00000,0.00000,0.00000,11.00000,0
0.06000,-0.11000,0.94000,-100.05000,-3.45000,-5.60000,-100.59000,-4.14000,-5.20000,0.54000,0.69000,-0.40000,10.00000,0.00000,0.00000,10.00000,0
0.05000,-0.11000,0.94000,-100.60000,-3.10000,-4.50000,-100.30000,-4.02000,-5.07000,-0.30000,0.92000,0.57000,6.00000,0.00000,0.00000,6.00000,0
0.06000,-0.11000,0.95000,-100.05000,-4.80000,-5.35000,-100.12000,-4.12000,-5.16000,0.07000,-0.68000,-0.19000,6.00000,1.00000,0.00000,6.08000,0
0.05000,-0.12000,0.94000,-100.10000,-4.10000,-5.80000,-100.24000,-4.10000,-5.29000,0.14000,0.00000,-0.51000,5.00000,0.00000,0.00000,5.00000,0
0.04000,-0.11000,0.93000,-101.85000,-4.45000,-4.70000,-100.65000,-4.06000,-5.17000,-1.20000,-0.39000,0.47000,5.00000,0.00000,0.00000,5.00000,0
0.04000,-0.11000,0.94000,-102.15000,-3.10000,-4.00000,-100.70000,-3.97000,-5.10000,-1.45000,0.87000,1.10000,5.00000,0.00000,1.00000,5.10000,0
0.05000,-0.12000,0.93000,-101.70000,-4.15000,-5.05000,-100.67000,-3.97000,-5.04000,-1.03000,-0.18000,-0.01000,5.00000,0.00000,1.00000,5.10000,0
0.05000,-0.11000,0.94000,-99.15000,-5.10000,-5.75000,-100.46000,-4.11000,-5.13000,1.31000,-0.99000,-0.62000,5.00000,2.00000,1.00000,5.48000,0
0.05000,-0.11000,0.94000,-98.00000,-3.80000,-5.15000,-100.31000,-4.07000,-5.12000,2.31000,0.27000,-0.03000,6.00000,1.00000,1.00000,6.16000,0
0.05000,-0.11000,0.94000,-101.45000,-3.55000,-5.40000,-100.51000,-3.96000,-5.13000,-0.94000,0.41000,-0.27000,6.00000,1.00000,1.00000,6.16000,0
0.05000,-0.11000,0.93000,-102.60000,-3.40000,-5.50000,-100.76000,-3.96000,-5.12000,-1.83000,0.56000,-0.38000,6.00000,1.00000,1.00000,6.16000,0
0.05000,-0.11000,0.95000,-99.80000,-5.05000,-5.70000,-100.68000,-4.15000,-5.24000,0.88000,-0.90000,-0.46000,7.00000,1.00000,1.00000,7.14000,0
0.05000,-0.11000,0.94000,-98.35000,-4.80000,-4.95000,-100.51000,-4.15000,-5.20000,2.16000,-0.65000,0.25000,10.00000,1.00000,1.00000,10.10000,0
0.05000,-0.12000,0.95000,-99.40000,-3.65000,-4.00000,-100.44000,-4.11000,-5.02000,1.04000,0.45000,1.02000,12.00000,1.00000,2.00000,12.21000,0
0.05000,-0.11000,0.94000,-102.30000,-3.95000,-5.20000,-100.49000,-4.05000,-5.07000,-1.81000,0.10000,-0.13000,11.00000,1.00000,2.00000,11.22000,0
0.05000,-0.12000,0.94000,-100.80000,-4.50000,-6.55000,-100.35000,-4.20000,-5.32000,-0.45000,-0.30000,-1.23000,10.00000,0.00000,2.00000,10.20000,0
0.05000,-0.11000,0.94000,-99.30000,-4.35000,-5.45000,-100.11000,-4.21000,-5.37000,0.81000,-0.14000,-0.08000,8.00000,0.00000,2.00000,8.25000,0
0.05000,-0.12000,0.94000,-97.85000,-3.55000,-5.15000,-99.98000,-4.06000,-5.31000,2.13000,0.51000,0.16000,9.00000,0.00000,2.00000,9.22000,0
0.05000,-0.12000,0.94000,-100.85000,-4.50000,-5.65000,-100.27000,-4.13000,-5.36000,-0.58000,-0.37000,-0.29000,8.00000,0.00000,2.00000,8.25000,0
0.05000,-0.12000,0.92000,-104.30000,-3.90000,-5.50000,-100.55000,-4.17000,-5.37000,-3.75000,0.27000,-0.13000,12.00000,0.00000,2.00000,12.17000,0
0.05000,-0.12000,0.94000,-99.15000,-4.10000,-5.25000,-100.21000,-4.23000,-5.34000,1.06000,0.13000,0.09000,10.00000,0.00000,2.00000,10.20000,0
0.05000,-0.11000,0.93000,-96.75000,-4.30000,-4.30000,-99.90000,-4.16000,-5.20000,3.15000,-0.14000,0.90000,12.00000,0.00000,2.00000,12.17000,0
0.04000,-0.11000,0.94000,-101.20000,-4.80000,-5.60000,-100.19000,-4.16000,-5.26000,-1.01000,-0.64000,-0.34000,13.00000,0.00000,2.00000,13.15000,0
0.05000,-0.11000,0.93000,-103.40000,-3.45000,-3.95000,-100.59000,-4.14000,-5.26000,-2.81000,0.69000,1.31000,13.00000,0.00000,2.00000,13.15000,0
0.05000,-0.12000,0.94000,-99.90000,-3.75000,-5.05000,-100.35000,-4.12000,-5.24000,0.45000,0.37000,0.19000,13.00000,0.00000,2.00000,13.15000,0
0.05000,-0.12000,0.93000,-97.30000,-4.50000,-5.65000,-100.00000,-4.12000,-5.15000,2.70000,-0.38000,-0.50000,15.00000,0.00000,1.00000,15.03000,0
0.05000,-0.12000,0.94000,-100.80000,-5.25000,-5.90000,-100.15000,-4.21000,-5.20000,-0.65000,-1.04000,-0.70000,16.00000,1.00000,1.00000,16.06000,0
0.05000,-0.12000,0.94000,-101.95000,-4.20000,-5.25000,-100.56000,-4.28000,-5.21000,-1.39000,0.08000,-0.04000,13.00000,0.00000,1.00000,13.04000,0
0.05000,-0.12000,0.94000,-101.60000,-4.10000,-6.00000,-100.63000,-4.24000,-5.25000,-0.97000,0.14000,-0.75000,13.00000,1.00000,1.00000,13.08000,0
0.04000,-0.12000,0.94000,-100.45000,-4.30000,-5.75000,-100.25000,-4.27000,-5.27000,-0.20000,-0.03000,-0.48000,11.00000,0.00000,1.00000,11.05000,0
0.05000,-0.12000,0.94000,-101.00000,-5.00000,-5.15000,-100.43000,-4.36000,-5.26000,-0.57000,-0.64000,0.11000,10.00000,0.00000,1.00000,10.05000,0
0.05000,-0.11000,0.94000,-100.50000,-3.50000,-5.65000,-100.81000,-4.29000,-5.40000,0.31000,0.79000,-0.25000,6.00000,0.00000,1.00000,6.08000,0
0.05000,-0.11000,0.94000,-99.60000,-3.90000,-4.90000,-100.65000,-4.20000,-5.33000,1.05000,0.30000,0.43000,7.00000,1.00000,1.00000,7.14000,0
0.05000,-0.12000,0.94000,-100.25000,-4.45000,-5.75000,-100.33000,-4.30000,-5.51000,0.08000,-0.15000,-0.24000,5.00000,0.00000,0.00000,5.00000,0
0.05000,-0.11000,0.94000,-99.60000,-4.25000,-5.60000,-100.30000,-4.35000,-5.56000,0.70000,0.10000,-0.04000,5.00000,0.00000,0.00000,5.00000,0
0.05000,-0.11000,0.95000,-100.80000,-4.10000,-5.15000,-100.65000,-4.30000,-5.51000,-0.15000,0.20000,0.36000,3.00000,0.00000,0.00000,3.00000,0
0.05000,-0.11000,0.95000,-101.30000,-4.35000,-5.30000,-100.70000,-4.21000,-5.45000,-0.60000,-0.14000,0.15000,3.00000,0.00000,0.00000,3.00000,0
0.04000,-0.12000,0.95000,-99.50000,-5.15000,-5.90000,-100.46000,-4.31000,-5.51000,0.96000,-0.84000,-0.39000,1.00000,0.00000,0.00000,1.00000,0
0.05000,-0.11000,0.94000,-100.00000,-3.60000,-5.25000,-100.30000,-4.26000,-5.44000,0.30000,0.66000,0.19000,1.00000,0.00000,0.00000,1.00000,0
0.05000,-0.11000,0.94000,-99.00000,-3.50000,-4.55000,-100.15000,-4.18000,-5.32000,1.15000,0.68000,0.77000,2.00000,0.00000,0.00000,2.00000,0
0.05000,-0.12000,0.94000,-99.05000,-5.30000,-5.95000,-99.96000,-4.21000,-5.40000,0.91000,-1.09000,-0.55000,1.00000,1.00000,0.00000,1.41000,0
0.05000,-0.11000,0.94000,-100.30000,-5.75000,-6.30000,-99.94000,-4.44000,-5.47000,-0.36000,-1.31000,-0.84000,1.00000,1.00000,0.00000,1.41000,0
0.05000,-0.11000,0.94000,-101.05000,-4.30000,-4.60000,-100.08000,-4.47000,-5.43000,-0.97000,0.17000,0.83000,3.00000,1.00000,0.00000,3.16000,0
0.04000,-0.11000,0.94000,-100.55000,-3.25000,-5.10000,-100.11000,-4.36000,-5.37000,-0.44000,1.11000,0.27000,3.00000,2.00000,0.00000,3.61000,0
0.05000,-0.11000,0.94000,-100.15000,-5.15000,-5.50000,-100.17000,-4.45000,-5.36000,0.02000,-0.70000,-0.14000,3.00000,2.00000,0.00000,3.61000,0
0.05000,-0.11000,0.95000,-101.90000,-4.65000,-5.80000,-100.28000,-4.50000,-5.42000,-1.62000,-0.15000,-0.38000,4.00000,3.00000,0.00000,5.00000,0
0.05000,-0.12000,0.94000,-100.30000,-2.95000,-4.95000,-100.18000,-4.36000,-5.39000,-0.12000,1.41000,0.44000,3.00000,3.00000,0.00000,4.24000,0
0.05000,-0.12000,0.94000,-99.25000,-4.95000,-5.55000,-100.15000,-4.34000,-5.36000,0.90000,-0.61000,-0.20000,3.00000,3.00000,0.00000,4.24000,0
0.05000,-0.12000,0.94000,-101.45000,-4.50000,-5.35000,-100.30000,-4.43000,-5.36000,-1.15000,-0.07000,0.01000,5.00000,3.00000,0.00000,5.83000,0
0.04000,-0.11000,0.94000,-101.65000,-4.25000,-6.00000,-100.57000,-4.51000,-5.51000,-1.08000,0.26000,-0.49000,4.00000,3.00000,0.00000,5.00000,0
0.05000,-0.12000,0.93000,-99.60000,-4.85000,-5.35000,-100.62000,-4.46000,-5.45000,1.02000,-0.39000,0.10000,4.00000,3.00000,0.00000,5.00000,0
0.05000,-0.12000,0.94000,-99.65000,-4.75000,-5.65000,-100.56000,-4.36000,-5.38000,0.91000,-0.39000,-0.27000,3.00000,2.00000,0.00000,3.61000,0
0.05000,-0.11000,0.94000,-100.40000,-4.40000,-5.95000,-100.49000,-4.37000,-5.52000,0.09000,-0.03000,-0.43000,3.00000,2.00000,0.00000,3.61000,0
0.05000,-0.12000,0.94000,-100.00000,-4.50000,-4.65000,-100.44000,-4.50000,-5.48000,0.44000,0.00000,0.83000,4.00000,1.00000,0.00000,4.12000,0
0.05000,-0.11000,0.94000,-101.00000,-4.95000,-5.10000,-100.52000,-4.47000,-5.44000,-0.48000,-0.47000,0.34000,3.00000,1.00000,0.00000,3.16000,0
0.05000,-0.12000,0.94000,-100.30000,-4.45000,-5.90000,-100.36000,-4.46000,-5.45000,0.06000,0.01000,-0.45000,3.00000,1.00000,0.00000,3.16000,0
0.05000,-0.11000,0.94000,-99.95000,-3.10000,-5.95000,-100.32000,-4.47000,-5.55000,0.37000,1.37000,-0.40000,3.00000,1.00000,0.00000,3.16000,0
0.05000,-0.12000,0.94000,-100.55000,-3.75000,-5.75000,-100.46000,-4.35000,-5.57000,-0.10000,0.60000,-0.18000,1.00000,1.00000,0.00000,1.41000,0
0.04000,-0.12000,0.94000,-101.80000,-4.40000,-5.45000,-100.49000,-4.34000,-5.58000,-1.31000,-0.06000,0.13000,2.00000,1.00000,0.00000,2.24000,0
0.05000,-0.12000,0.93000,-98.80000,-4.50000,-5.55000,-100.21000,-4.37000,-5.53000,1.40000,-0.13000,-0.02000,2.00000,1.00000,0.00000,2.24000,0
0.04000,-0.11000,0.94000,-99.35000,-4.25000,-4.65000,-100.18000,-4.30000,-5.46000,0.83000,0.05000,0.81000,2.00000,1.00000,0.00000,2.24000,0
0.05000,-0.12000,0.94000,-101.40000,-3.80000,-5.15000,-100.35000,-4.21000,-5.41000,-1.05000,0.41000,0.26000,4.00000,1.00000,0.00000,4.12000,0
0.05000,-0.11000,0.94000,-100.90000,-4.00000,-5.85000,-100.40000,-4.17000,-5.40000,-0.50000,0.17000,-0.45000,3.00000,1.00000,0.00000,3.16000,0
0.05000,-0.12000,0.94000,-99.20000,-5.35000,-5.95000,-100.32000,-4.26000,-5.53000,1.12000,-1.09000,-0.42000,4.00000,2.00000,0.00000,4.47000,0
0.05000,-0.11000,0.94000,-99.95000,-4.40000,-4.20000,-100.22000,-4.20000,-5.44000,0.27000,-0.20000,1.24000,4.00000,2.00000,1.00000,4.58000,0
0.05000,-0.11000,0.94000,-99.70000,-3.85000,-6.00000,-100.16000,-4.14000,-5.45000,0.46000,0.29000,-0.55000,3.00000,2.00000,1.00000,3.74000,0
0.05000,-0.12000,0.94000,-99.90000,-5.10000,-5.05000,-100.16000,-4.34000,-5.36000,0.26000,-0.76000,0.31000,3.00000,1.00000,1.00000,3.32000,0
0.05000,-0.12000,0.94000,-101.60000,-3.25000,-5.35000,-100.26000,-4.29000,-5.32000,-1.34000,1.04000,-0.03000,5.00000,2.00000,1.00000,5.48000,0
0.06000,-0.12000,0.94000,-99.95000,-3.70000,-4.60000,-100.07000,-4.22000,-5.23000,0.13000,0.52000,0.63000,3.00000,1.00000,1.00000,3.32000,0
0.05000,-0.12000,0.95000,-98.45000,-4.70000,-5.85000,-100.04000,-4.24000,-5.26000,1.59000,-0.46000,-0.59000,3.00000,1.00000,1.00000,3.32000,0
0.05000,-0.12000,0.94000,-100.65000,-5.25000,-4.75000,-100.17000,-4.34000,-5.27000,-0.48000,-0.91000,0.52000,3.00000,2.00000,1.00000,3.74000,0
0.05000,-0.12000,0.94000,-101.40000,-3.60000,-5.25000,-100.17000,-4.32000,-5.28000,-1.23000,0.72000,0.03000,3.00000,2.00000,1.00000,3.74000,0
0.05000,-0.12000,0.94000,-102.00000,-3.55000,-4.70000,-100.28000,-4.28000,-5.17000,-1.72000,0.73000,0.47000,5.00000,2.00000,0.00000,5.39000,0
0.05000,-0.12000,0.94000,-99.10000,-3.95000,-5.20000,-100.27000,-4.13000,-5.10000,1.17000,0.18000,-0.10000,5.00000,1.00000,0.00000,5.10000,0
0.06000,-0.11000,0.94000,-98.95000,-5.05000,-5.15000,-100.17000,-4.20000,-5.19000,1.22000,-0.85000,0.04000,6.00000,1.00000,0.00000,6.08000,0
0.05000,-0.12000,0.94000,-101.45000,-3.00000,-5.15000,-100.35000,-4.11000,-5.11000,-1.10000,1.11000,-0.04000,7.00000,2.00000,0.00000,7.28000,0
0.04000,-0.12000,0.95000,-101.15000,-3.25000,-5.75000,-100.47000,-3.93000,-5.18000,-0.68000,0.68000,-0.57000,6.00000,2.00000,0.00000,6.32000,0
0.05000,-0.12000,0.94000,-100.50000,-4.20000,-5.85000,-100.36000,-4.03000,-5.23000,-0.14000,-0.17000,-0.62000,6.00000,3.00000,0.00000,6.71000,0
0.05000,-0.11000,0.95000,-98.75000,-3.50000,-5.65000,-100.24000,-4.01000,-5.33000,1.49000,0.51000,-0.32000,7.00000,3.00000,0.00000,7.62000,0
0.06000,-0.11000,0.94000,-100.10000,-2.90000,-4.45000,-100.40000,-3.83000,-5.19000,0.31000,0.93000,0.74000,5.00000,2.00000,0.00000,5.39000,0
0.05000,-0.12000,0.94000,-102.10000,-2.85000,-4.75000,-100.55000,-3.58000,-5.19000,-1.55000,0.73000,0.44000,5.00000,1.00000,0.00000,5.10000,0
0.05000,-0.11000,0.94000,-98.70000,-5.45000,-5.25000,-100.28000,-3.77000,-5.19000,1.58000,-1.68000,-0.06000,7.00000,2.00000,0.00000,7.28000,0
0.05000,-0.11000,0.93000,-99.15000,-3.45000,-5.10000,-100.00000,-3.76000,-5.23000,0.85000,0.31000,0.13000,7.00000,2.00000,0.00000,7.28000,0
0.05000,-0.11000,0.94000,-101.90000,-3.50000,-5.00000,-100.28000,-3.72000,-5.21000,-1.62000,0.22000,0.21000,7.00000,2.00000,0.00000,7.28000,0
0.05000,-0.12000,0.95000,-100.70000,-4.80000,-5.15000,-100.45000,-3.69000,-5.21000,-0.25000,-1.11000,0.06000,5.00000,2.00000,0.00000,5.39000,0
0.05000,-0.11000,0.94000,-101.45000,-3.75000,-5.85000,-100.45000,-3.77000,-5.28000,-1.00000,0.02000,-0.57000,5.00000,2.00000,0.00000,5.39000,0
0.05000,-0.11000,0.94000,-100.55000,-4.55000,-5.05000,-100.39000,-3.89000,-5.21000,-0.16000,-0.66000,0.16000,6.00000,2.00000,0.00000,6.32000,0
0.04000,-0.12000,0.94000,-98.20000,-4.85000,-5.50000,-100.16000,-3.96000,-5.18000,1.96000,-0.89000,-0.32000,7.00000,3.00000,0.00000,7.62000,0
0.05000,-0.12000,0.94000,-100.55000,-4.80000,-5.20000,-100.34000,-4.09000,-5.13000,-0.21000,-0.71000,-0.07000,7.00000,3.00000,0.00000,7.62000,0
0.06000,-0.12000,0.94000,-102.20000,-3.90000,-5.45000,-100.55000,-4.19000,-5.23000,-1.65000,0.29000,-0.22000,7.00000,2.00000,0.00000,7.28000,0
0.05000,-0.12000,0.94000,-101.40000,-3.90000,-5.05000,-100.48000,-4.30000,-5.26000,-0.92000,0.40000,0.21000,6.00000,1.00000,0.00000,6.08000,0
0.04000,-0.11000,0.94000,-99.10000,-4.75000,-6.00000,-100.52000,-4.23000,-5.34000,1.42000,-0.52000,-0.66000,6.00000,0.00000,0.00000,6.00000,0
0.05000,-0.12000,0.94000,-100.95000,-4.45000,-5.75000,-100.70000,-4.32000,-5.40000,-0.25000,-0.13000,-0.35000,5.00000,0.00000,0.00000,5.00000,0
0.05000,-0.12000,0.94000,-101.70000,-4.20000,-4.70000,-100.68000,-4.39000,-5.37000,-1.02000,0.20000,0.67000,5.00000,0.00000,0.00000,5.00000,0
0.05000,-0.12000,0.95000,-100.40000,-4.70000,-5.30000,-100.65000,-4.39000,-5.38000,0.25000,-0.31000,0.08000,5.00000,0.00000,0.00000,5.00000,0
0.06000,-0.11000,0.93000,-99.65000,-4.55000,-4.95000,-100.47000,-4.47000,-5.30000,0.82000,-0.09000,0.35000,5.00000,0.00000,0.00000,5.00000,0
0.05000,-0.12000,0.94000,-101.40000,-4.30000,-5.40000,-100.56000,-4.44000,-5.33000,-0.84000,0.14000,-0.07000,5.00000,0.00000,0.00000,5.00000,0
0.05000,-0.11000,0.94000,-99.75000,-4.65000,-5.35000,-100.71000,-4.42000,-5.32000,0.96000,-0.23000,-0.03000,3.00000,0.00000,0.00000,3.00000,0
0.05000,-0.11000,0.95000,-99.60000,-4.25000,-6.35000,-100.62000,-4.37000,-5.43000,1.02000,0.12000,-0.92000,4.00000,0.00000,0.00000,4.00000,0
0.05000,-0.12000,0.94000,-100.40000,-4.10000,-5.70000,-100.44000,-4.38000,-5.45000,0.04000,0.28000,-0.24000,2.00000,0.00000,0.00000,2.00000,0
0.04000,-0.11000,0.94000,-99.55000,-4.20000,-5.90000,-100.25000,-4.41000,-5.54000,0.70000,0.22000,-0.36000,3.00000,0.00000,0.00000,3.00000,0
0.05000,-0.11000,0.94000,-98.50000,-3.75000,-4.50000,-100.19000,-4.32000,-5.39000,1.69000,0.57000,0.89000,3.00000,0.00000,0.00000,3.00000,0
0.05000,-0.11000,0.94000,-100.35000,-4.70000,-4.10000,-100.13000,-4.34000,-5.22000,-0.22000,-0.36000,1.12000,3.00000,0.00000,2.00000,3.61000,0
0.05000,-0.12000,0.93000,-100.80000,-3.90000,-5.90000,-100.04000,-4.31000,-5.35000,-0.76000,0.41000,-0.55000,2.00000,0.00000,2.00000,2.83000,0
0.05000,-0.12000,0.94000,-99.50000,-3.45000,-6.40000,-99.95000,-4.19000,-5.46000,0.45000,0.74000,-0.94000,2.00000,0.00000,1.00000,2.24000,0
0.05000,-0.11000,0.94000,-100.00000,-3.55000,-5.75000,-99.99000,-4.09000,-5.53000,-0.01000,0.54000,-0.22000,2.00000,0.00000,2.00000,2.83000,0
0.05000,-0.12000,0.95000,-100.15000,-4.10000,-5.30000,-99.86000,-4.06000,-5.53000,-0.29000,-0.04000,0.22000,1.00000,0.00000,2.00000,2.24000,0
0.05000,-0.11000,0.94000,-100.75000,-3.45000,-5.50000,-99.96000,-3.95000,-5.54000,-0.79000,0.50000,0.04000,1.00000,0.00000,2.00000,2.24000,0
0.05000,-0.12000,0.94000,-100.95000,-4.40000,-5.10000,-100.10000,-3.96000,-5.41000,-0.85000,-0.44000,0.32000,1.00000,0.00000,1.00000,1.41000,0
0.05000,-0.12000,0.94000,-101.00000,-4.00000,-5.90000,-100.16000,-3.95000,-5.43000,-0.84000,-0.05000,-0.47000,1.00000,0.00000,1.00000,1.41000,0
0.05000,-0.12000,0.93000,-99.60000,-4.75000,-6.60000,-100.16000,-4.01000,-5.51000,0.56000,-0.74000,-1.09000,1.00000,0.00000,3.00000,3.16000,0
0.05000,-0.11000,0.94000,-100.40000,-3.60000,-5.45000,-100.35000,-3.99000,-5.60000,-0.05000,0.39000,0.15000,0.00000,0.00000,2.00000,2.00000,0
0.05000,-0.11000,0.94000,-101.25000,-4.00000,-5.65000,-100.44000,-3.92000,-5.76000,-0.81000,-0.08000,0.11000,0.00000,0.00000,0.00000,0.00000,0
0.05000,-0.11000,0.94000,-101.25000,-3.45000,-4.90000,-100.49000,-3.88000,-5.66000,-0.76000,0.43000,0.76000,0.00000,0.00000,0.00000,0.00000,0
0.05000,-0.11000,0.94000,-99.20000,-4.15000,-4.60000,-100.46000,-3.95000,-5.47000,1.26000,-0.20000,0.88000,1.00000,0.00000,1.00000,1.41000,0
0.04000,-0.12000,0.94000,-101.40000,-4.10000,-5.85000,-100.60000,-4.00000,-5.48000,-0.81000,-0.10000,-0.37000,1.00000,0.00000,1.00000,1.41000,0
0.05000,-0.12000,0.94000,-100.85000,-5.00000,-5.40000,-100.67000,-4.09000,-5.49000,-0.18000,-0.91000,0.09000,2.00000,0.00000,1.00000,2.24000,0
0.05000,-0.11000,0.94000,-100.60000,-4.30000,-5.20000,-100.65000,-4.18000,-5.46000,0.05000,-0.13000,0.26000,2.00000,0.00000,1.00000,2.24000,0
0.05000,-0.11000,0.94000,-101.35000,-4.60000,-5.25000,-100.69000,-4.20000,-5.48000,-0.66000,-0.40000,0.23000,2.00000,0.00000,1.00000,2.24000,0
0.05000,-0.12000,0.94000,-100.85000,-4.25000,-5.15000,-100.67000,-4.22000,-5.41000,-0.18000,-0.03000,0.26000,2.00000,0.00000,1.00000,2.24000,0
0.05000,-0.12000,0.94000,-99.85000,-4.10000,-5.50000,-100.70000,-4.15000,-5.30000,0.85000,0.05000,-0.20000,1.00000,0.00000,0.00000,1.00000,0
0.04000,-0.11000,0.94000,-98.75000,-4.55000,-5.55000,-100.53000,-4.25000,-5.30000,1.78000,-0.30000,-0.25000,2.00000,0.00000,0.00000,2.00000,0
0.05000,-0.12000,0.95000,-100.20000,-4.05000,-5.00000,-100.43000,-4.26000,-5.24000,0.23000,0.20000,0.24000,2.00000,0.00000,0.00000,2.00000,0
0.05000,-0.11000,0.94000,-101.50000,-4.15000,-5.45000,-100.46000,-4.32000,-5.29000,-1.04000,0.17000,-0.16000,3.00000,0.00000,0.00000,3.00000,0
0.05000,-0.12000,0.93000,-100.70000,-4.35000,-5.05000,-100.61000,-4.35000,-5.34000,-0.09000,0.00000,0.29000,1.00000,0.00000,0.00000,1.00000,0
0.05000,-0.12000,0.94000,-100.15000,-3.45000,-5.70000,-100.48000,-4.28000,-5.32000,0.33000,0.83000,-0.37000,2.00000,0.00000,0.00000,2.00000,0
0.05000,-0.11000,0.94000,-99.75000,-4.20000,-4.25000,-100.37000,-4.20000,-5.21000,0.62000,0.00000,0.96000,2.00000,0.00000,0.00000,2.00000,0
0.05000,-0.11000,0.94000,-100.95000,-2.90000,-5.05000,-100.41000,-4.06000,-5.20000,-0.54000,1.16000,0.14000,2.00000,1.00000,0.00000,2.24000,0
0.05000,-0.11000,0.94000,-99.90000,-3.95000,-5.00000,-100.26000,-4.00000,-5.17000,0.36000,0.05000,0.17000,2.00000,1.00000,0.00000,2.24000,0
0.05000,-0.11000,0.93000,-100.50000,-4.75000,-4.80000,-100.23000,-4.05000,-5.13000,-0.27000,-0.70000,0.33000,2.00000,1.00000,0.00000,2.24000,0
0.05000,-0.11000,0.93000,-100.20000,-3.25000,-4.80000,-100.26000,-3.96000,-5.06000,0.06000,0.71000,0.26000,2.00000,1.00000,0.00000,2.24000,0
0.06000,-0.11000,0.94000,-100.85000,-4.95000,-6.20000,-100.47000,-4.00000,-5.13000,-0.38000,-0.95000,-1.07000,1.00000,1.00000,1.00000,1.73000,0
0.06000,-0.11000,0.93000,-99.45000,-5.05000,-6.05000,-100.40000,-4.10000,-5.23000,0.95000,-0.95000,-0.82000,1.00000,1.00000,0.00000,1.41000,0
0.05000,-0.12000,0.94000,-99.50000,-5.25000,-5.60000,-100.19000,-4.21000,-5.25000,0.69000,-1.04000,-0.35000,0.00000,2.00000,0.00000,2.00000,0
0.05000,-0.11000,0.94000,-100.70000,-4.40000,-5.85000,-100.19000,-4.22000,-5.33000,-0.51000,-0.18000,-0.52000,0.00000,2.00000,1.00000,2.24000,0
0.04000,-0.12000,0.94000,-101.50000,-4.20000,-5.65000,-100.33000,-4.29000,-5.32000,-1.17000,0.09000,-0.33000,1.00000,2.00000,1.00000,2.45000,0
0.05000,-0.12000,0.94000,-100.35000,-3.85000,-5.50000,-100.39000,-4.26000,-5.45000,0.04000,0.41000,-0.05000,1.00000,2.00000,0.00000,2.24000,0
0.05000,-0.11000,0.94000,-99.05000,-5.40000,-6.45000,-100.20000,-4.51000,-5.59000,1.15000,-0.89000,-0.86000,2.00000,1.00000,0.00000,2.24000,0
0.05000,-0.11000,0.94000,-100.10000,-3.85000,-4.05000,-100.22000,-4.49000,-5.49000,0.12000,0.64000,1.44000,2.00000,1.00000,1.00000,2.45000,0
0.05000,-0.12000,0.95000,-101.50000,-3.40000,-5.80000,-100.32000,-4.36000,-5.60000,-1.18000,0.96000,-0.20000,3.00000,2.00000,1.00000,3.74000,0
0.05000,-0.11000,0.94000,-100.40000,-4.55000,-4.95000,-100.34000,-4.49000,-5.61000,-0.06000,-0.06000,0.66000,3.00000,1.00000,1.00000,3.32000,0
0.06000,-0.11000,0.93000,-99.15000,-4.35000,-4.85000,-100.17000,-4.43000,-5.47000,1.02000,0.08000,0.62000,4.00000,1.00000,1.00000,4.24000,0
0.05000,-0.12000,0.94000,-100.75000,-4.30000,-5.35000,-100.30000,-4.35000,-5.40000,-0.45000,0.05000,0.05000,4.00000,1.00000,2.00000,4.58000,0
0.05000,-0.11000,0.94000,-100.15000,-3.80000,-5.60000,-100.37000,-4.21000,-5.40000,0.22000,0.41000,-0.20000,4.00000,1.00000,2.00000,4.58000,0
0.05000,-0.11000,0.94000,-102.15000,-3.65000,-4.60000,-100.51000,-4.14000,-5.28000,-1.64000,0.49000,0.68000,3.00000,1.00000,2.00000,3.74000,0
0.05000,-0.12000,0.94000,-99.60000,-3.35000,-6.00000,-100.32000,-4.05000,-5.31000,0.72000,0.70000,-0.69000,4.00000,1.00000,2.00000,4.58000,0
0.05000,-0.12000,0.94000,-99.55000,-4.55000,-5.15000,-100.24000,-4.12000,-5.28000,0.69000,-0.43000,0.13000,4.00000,1.00000,2.00000,4.58000,0
0.05000,-0.11000,0.94000,-102.00000,-3.85000,-4.75000,-100.53000,-3.96000,-5.11000,-1.47000,0.11000,0.36000,3.00000,0.00000,1.00000,3.16000,0
0.04000,-0.11000,0.93000,-102.55000,-4.50000,-5.05000,-100.78000,-4.03000,-5.21000,-1.77000,-0.47000,0.16000,6.00000,0.00000,0.00000,6.00000,0
0.04000,-0.12000,0.95000,-98.70000,-4.30000,-5.75000,-100.50000,-4.12000,-5.20000,1.80000,-0.18000,-0.55000,6.00000,0.00000,0.00000,6.00000,0
0.05000,-0.12000,0.94000,-98.05000,-5.00000,-4.75000,-100.26000,-4.16000,-5.18000,2.21000,-0.84000,0.43000,8.00000,0.00000,0.00000,8.00000,0
0.05000,-0.12000,0.94000,-100.85000,-2.50000,-5.55000,-100.43000,-3.98000,-5.26000,-0.42000,1.48000,-0.30000,7.00000,2.00000,0.00000,7.28000,0
0.06000,-0.12000,0.93000,-101.95000,-3.90000,-4.70000,-100.56000,-3.94000,-5.19000,-1.39000,0.04000,0.49000,8.00000,2.00000,0.00000,8.25000,0
0.05000,-0.11000,0.94000,-98.70000,-4.75000,-5.20000,-100.41000,-4.04000,-5.15000,1.71000,-0.71000,-0.05000,9.00000,1.00000,0.00000,9.06000,0
0.05000,-0.11000,0.94000,-99.55000,-4.00000,-4.95000,-100.15000,-4.07000,-5.19000,0.60000,0.07000,0.24000,8.00000,1.00000,0.00000,8.06000,0
0.05000,-0.11000,0.94000,-100.90000,-4.20000,-5.25000,-100.28000,-4.15000,-5.11000,-0.62000,-0.05000,-0.14000,8.00000,1.00000,0.00000,8.06000,0
0.05000,-0.12000,0.94000,-100.85000,-3.75000,-5.25000,-100.41000,-4.08000,-5.12000,-0.44000,0.33000,-0.13000,8.00000,1.00000,0.00000,8.06000,0
0.05000,-0.12000,0.94000,-100.75000,-4.50000,-4.55000,-100.28000,-4.14000,-5.10000,-0.47000,-0.36000,0.55000,7.00000,1.00000,0.00000,7.07000,0
0.05000,-0.12000,0.94000,-101.05000,-3.95000,-5.60000,-100.13000,-4.09000,-5.15000,-0.92000,0.13000,-0.45000,5.00000,1.00000,0.00000,5.10000,0
0.05000,-0.12000,0.94000,-100.30000,-3.75000,-5.70000,-100.29000,-4.03000,-5.15000,-0.01000,0.28000,-0.55000,4.00000,1.00000,0.00000,4.12000,0
0.05000,-0.12000,0.93000,-100.05000,-4.75000,-5.55000,-100.49000,-4.01000,-5.23000,0.44000,-0.74000,-0.32000,2.00000,1.00000,0.00000,2.24000,0
0.05000,-0.11000,0.94000,-101.40000,-4.60000,-5.65000,-100.55000,-4.21000,-5.24000,-0.85000,-0.39000,-0.41000,3.00000,0.00000,0.00000,3.00000,0
0.05000,-0.12000,0.94000,-100.30000,-3.65000,-4.75000,-100.38000,-4.19000,-5.24000,0.08000,0.54000,0.49000,2.00000,0.00000,0.00000,2.00000,0
0.05000,-0.12000,0.94000,-100.10000,-3.40000,-5.60000,-100.53000,-4.06000,-5.28000,0.43000,0.66000,-0.32000,0.00000,0.00000,0.00000,0.00000,0
0.04000,-0.11000,0.94000,-101.80000,-4.30000,-5.65000,-100.75000,-4.09000,-5.36000,-1.05000,-0.22000,-0.30000,1.00000,0.00000,0.00000,1.00000,0
0.04000,-0.11000,0.94000,-101.50000,-4.80000,-5.25000,-100.81000,-4.14000,-5.36000,-0.69000,-0.66000,0.11000,0.00000,0.00000,0.00000,0.00000,0
0.05000,-0.11000,0.94000,-101.10000,-4.30000,-4.90000,-100.83000,-4.20000,-5.32000,-0.26000,-0.10000,0.42000,0.00000,0.00000,0.00000,0.00000,0
0.05000,-0.11000,0.94000,-99.20000,-3.50000,-5.65000,-100.68000,-4.10000,-5.43000,1.48000,0.60000,-0.22000,2.00000,0.00000,0.00000,2.00000,0
0.05000,-0.11000,0.93000,-100.75000,-3.90000,-5.30000,-100.65000,-4.10000,-5.40000,-0.10000,0.20000,0.10000,2.00000,0.00000,0.00000,2.00000,0
0.05000,-0.12000,0.95000,-100.00000,-4.85000,-5.80000,-100.62000,-4.20000,-5.41000,0.62000,-0.64000,-0.39000,2.00000,0.00000,0.00000,2.00000,0
0.04000,-0.12000,0.95000,-100.60000,-4.75000,-5.00000,-100.68000,-4.20000,-5.36000,0.08000,-0.55000,0.36000,2.00000,0.00000,0.00000,2.00000,0
0.05000,-0.12000,0.93000,-100.95000,-3.10000,-4.35000,-100.63000,-4.05000,-5.22000,-0.32000,0.95000,0.87000,2.00000,0.00000,0.00000,2.00000,0
0.05000,-0.11000,0.94000,-100.40000,-4.90000,-4.90000,-100.64000,-4.18000,-5.24000,0.24000,-0.72000,0.34000,2.00000,1.00000,0.00000,2.24000,0
0.05000,-0.12000,0.94000,-100.75000,-3.40000,-5.05000,-100.71000,-4.18000,-5.18000,-0.04000,0.78000,0.13000,2.00000,1.00000,0.00000,2.24000,0
0.05000,-0.12000,0.94000,-99.70000,-4.05000,-5.70000,-100.50000,-4.16000,-5.19000,0.80000,0.11000,-0.51000,2.00000,1.00000,0.00000,2.24000,0
0.05000,-0.11000,0.94000,-99.80000,-4.00000,-5.40000,-100.32000,-4.07000,-5.21000,0.52000,0.07000,-0.19000,1.00000,0.00000,0.00000,1.00000,0
0.05000,-0.12000,0.94000,-99.50000,-4.45000,-5.05000,-100.17000,-4.09000,-5.22000,0.67000,-0.36000,0.17000,0.00000,0.00000,0.00000,0.00000,0
0.05000,-0.12000,0.95000,-100.00000,-4.75000,-5.70000,-100.24000,-4.22000,-5.23000,0.24000,-0.53000,-0.47000,0.00000,1.00000,0.00000,1.00000,0
0.05000,-0.12000,0.94000,-102.15000,-4.15000,-5.10000,-100.38000,-4.24000,-5.20000,-1.77000,0.09000,0.11000,1.00000,1.00000,0.00000,1.41000,0
0.05000,-0.11000,0.95000,-99.10000,-4.70000,-5.00000,-100.29000,-4.23000,-5.12000,1.19000,-0.47000,0.13000,2.00000,1.00000,0.00000,2.24000,0
0.05000,-0.12000,0.94000,-99.10000,-4.65000,-5.20000,-100.14000,-4.22000,-5.14000,1.04000,-0.43000,-0.05000,4.00000,1.00000,0.00000,4.12000,0
0.05000,-0.11000,0.94000,-100.15000,-4.60000,-5.20000,-100.06000,-4.36000,-5.23000,-0.09000,-0.24000,0.03000,2.00000,0.00000,0.00000,2.00000,0
0.05000,-0.12000,0.94000,-101.00000,-4.55000,-5.45000,-100.12000,-4.33000,-5.29000,-0.88000,-0.22000,-0.16000,4.00000,0.00000,0.00000,4.00000,0
0.05000,-0.12000,0.94000,-101.05000,-4.70000,-5.60000,-100.15000,-4.46000,-5.34000,-0.90000,-0.24000,-0.26000,3.00000,0.00000,0.00000,3.00000,0
0.05000,-0.12000,0.94000,-100.25000,-3.90000,-5.35000,-100.21000,-4.45000,-5.30000,-0.04000,0.55000,-0.05000,3.00000,0.00000,0.00000,3.00000,0
0.05000,-0.12000,0.95000,-100.35000,-3.25000,-5.20000,-100.26000,-4.37000,-5.28000,-0.08000,1.12000,0.09000,3.00000,1.00000,0.00000,3.16000,0
0.05000,-0.12000,0.94000,-100.35000,-3.95000,-4.30000,-100.35000,-4.32000,-5.21000,0.00000,0.37000,0.91000,3.00000,1.00000,0.00000,3.16000,0
0.05000,-0.12000,0.94000,-100.35000,-3.90000,-4.65000,-100.38000,-4.24000,-5.11000,0.03000,0.34000,0.46000,3.00000,0.00000,0.00000,3.00000,0
0.05000,-0.12000,0.94000,-101.15000,-4.55000,-5.60000,-100.28000,-4.28000,-5.15000,-0.87000,-0.28000,-0.45000,2.00000,1.00000,0.00000,2.24000,0
0.05000,-0.11000,0.94000,-99.10000,-3.60000,-5.70000,-100.28000,-4.16000,-5.22000,1.18000,0.57000,-0.47000,2.00000,0.00000,0.00000,2.00000,0
0.05000,-0.12000,0.94000,-100.40000,-4.00000,-5.50000,-100.42000,-4.10000,-5.26000,0.01000,0.10000,-0.24000,1.00000,0.00000,0.00000,1.00000,0
0.05000,-0.11000,0.93000,-100.00000,-4.75000,-4.40000,-100.40000,-4.11000,-5.18000,0.40000,-0.64000,0.78000,1.00000,0.00000,0.00000,1.00000,0
0.05000,-0.12000,0.94000,-99.15000,-5.15000,-6.10000,-100.22000,-4.18000,-5.24000,1.07000,-0.97000,-0.86000,2.00000,0.00000,0.00000,2.00000,0
0.05000,-0.12000,0.94000,-100.30000,-5.15000,-5.30000,-100.14000,-4.22000,-5.21000,-0.16000,-0.93000,-0.09000,2.00000,0.00000,0.00000,2.00000,0
0.04000,-0.11000,0.94000,-100.60000,-3.80000,-4.95000,-100.18000,-4.21000,-5.17000,-0.42000,0.41000,0.22000,2.00000,0.00000,0.00000,2.00000,0
0.05000,-0.12000,0.94000,-101.35000,-5.10000,-4.65000,-100.27000,-4.39000,-5.12000,-1.08000,-0.71000,0.47000,3.00000,0.00000,0.00000,3.00000,0
0.05000,-0.11000,0.94000,-101.15000,-5.10000,-6.40000,-100.35000,-4.51000,-5.33000,-0.80000,-0.59000,-1.07000,2.00000,0.00000,1.00000,2.24000,0
0.05000,-0.12000,0.94000,-99.80000,-3.00000,-4.95000,-100.30000,-4.42000,-5.36000,0.50000,1.42000,0.41000,3.00000,1.00000,1.00000,3.32000,0
0.05000,-0.12000,0.94000,-99.05000,-4.35000,-6.65000,-100.09000,-4.40000,-5.46000,1.04000,0.05000,-1.19000,3.00000,1.00000,2.00000,3.74000,0
0.05000,-0.12000,0.94000,-100.60000,-5.10000,-4.70000,-100.24000,-4.55000,-5.36000,-0.36000,-0.55000,0.66000,3.00000,1.00000,2.00000,3.74000,0
0.05000,-0.11000,0.94000,-100.80000,-4.60000,-4.55000,-100.28000,-4.61000,-5.27000,-0.52000,0.01000,0.72000,3.00000,1.00000,2.00000,3.74000,0
0.04000,-0.12000,0.95000,-100.75000,-5.10000,-4.25000,-100.35000,-4.64000,-5.25000,-0.40000,-0.46000,1.00000,2.00000,1.00000,3.00000,3.74000,0
0.05000,-0.12000,0.94000,-101.30000,-3.00000,-4.80000,-100.57000,-4.43000,-5.12000,-0.73000,1.43000,0.32000,1.00000,2.00000,2.00000,3.00000,0
0.05000,-0.11000,0.94000,-100.60000,-3.60000,-6.05000,-100.60000,-4.28000,-5.19000,0.00000,0.68000,-0.86000,1.00000,2.00000,2.00000,3.00000,0
0.05000,-0.11000,0.94000,-100.65000,-5.15000,-5.35000,-100.60000,-4.41000,-5.23000,-0.05000,-0.74000,-0.12000,1.00000,2.00000,2.00000,3.00000,0
0.04000,-0.12000,0.94000,-101.05000,-3.15000,-5.40000,-100.57000,-4.22000,-5.31000,-0.48000,1.07000,-0.09000,1.00000,3.00000,3.00000,4.36000,0
0.05000,-0.11000,0.94000,-100.40000,-3.60000,-5.80000,-100.50000,-4.07000,-5.25000,0.10000,0.47000,-0.55000,1.00000,5.00000,1.00000,5.20000,0
0.05000,-0.12000,0.94000,-99.90000,-4.30000,-5.10000,-100.51000,-4.19000,-5.26000,0.61000,-0.11000,0.16000,1.00000,2.00000,2.00000,3.00000,0
0.05000,-0.11000,0.94000,-100.05000,-5.05000,-5.90000,-100.61000,-4.26000,-5.19000,0.56000,-0.79000,-0.71000,0.00000,2.00000,0.00000,2.00000,0
0.05000,-0.12000,0.94000,-101.25000,-4.50000,-5.95000,-100.68000,-4.20000,-5.32000,-0.57000,-0.30000,-0.63000,0.00000,2.00000,1.00000,2.24000,0
0.05000,-0.12000,0.93000,-102.05000,-3.95000,-6.00000,-100.80000,-4.14000,-5.46000,-1.25000,0.19000,-0.54000,1.00000,2.00000,1.00000,2.45000,0
0.05000,-0.11000,0.94000,-99.85000,-4.65000,-4.70000,-100.71000,-4.10000,-5.51000,0.86000,-0.55000,0.81000,1.00000,2.00000,0.00000,2.24000,0
0.05000,-0.11000,0.94000,-98.85000,-4.55000,-5.50000,-100.46000,-4.25000,-5.57000,1.61000,-0.30000,0.07000,2.00000,1.00000,0.00000,2.24000,0
0.05000,-0.11000,0.94000,-101.05000,-4.55000,-6.05000,-100.51000,-4.35000,-5.57000,-0.54000,-0.20000,-0.48000,2.00000,1.00000,0.00000,2.24000,0
0.05000,-0.11000,0.95000,-101.50000,-3.55000,-6.55000,-100.59000,-4.18000,-5.70000,-0.91000,0.63000,-0.86000,2.00000,1.00000,0.00000,2.24000,0
0.04000,-0.12000,0.94000,-99.35000,-4.40000,-5.75000,-100.42000,-4.31000,-5.73000,1.07000,-0.09000,-0.02000,4.00000,0.00000,1.00000,4.12000,0
0.05000,-0.12000,0.94000,-101.55000,-4.70000,-4.50000,-100.54000,-4.42000,-5.60000,-1.01000,-0.28000,1.10000,4.00000,0.00000,1.00000,4.12000,0
0.05000,-0.11000,0.93000,-100.40000,-5.45000,-4.80000,-100.59000,-4.54000,-5.57000,0.19000,-0.91000,0.77000,3.00000,0.00000,1.00000,3.16000,0
0.05000,-0.12000,0.94000,-100.55000,-4.05000,-6.30000,-100.64000,-4.43000,-5.61000,0.09000,0.38000,-0.69000,3.00000,1.00000,1.00000,3.32000,0
0.05000,-0.11000,0.93000,-100.15000,-4.00000,-5.80000,-100.53000,-4.38000,-5.59000,0.38000,0.38000,-0.21000,4.00000,1.00000,1.00000,4.24000,0
0.05000,-0.12000,0.94000,-99.90000,-3.65000,-5.40000,-100.32000,-4.36000,-5.53000,0.42000,0.71000,0.13000,3.00000,1.00000,2.00000,3.74000,0
0.05000,-0.11000,0.93000,-100.35000,-4.10000,-5.90000,-100.37000,-4.30000,-5.66000,0.02000,0.20000,-0.24000,4.00000,1.00000,1.00000,4.24000,0
0.05000,-0.11000,0.94000,-100.10000,-4.50000,-5.20000,-100.49000,-4.30000,-5.63000,0.39000,-0.20000,0.43000,3.00000,1.00000,1.00000,3.32000,0
0.04000,-0.12000,0.93000,-100.80000,-4.20000,-5.05000,-100.47000,-4.26000,-5.53000,-0.33000,0.06000,0.47000,3.00000,1.00000,2.00000,3.74000,0
0.05000,-0.12000,0.94000,-100.70000,-4.35000,-5.80000,-100.38000,-4.34000,-5.45000,-0.32000,-0.01000,-0.35000,2.00000,1.00000,0.00000,2.24000,0
0.05000,-0.11000,0.94000,-99.70000,-4.05000,-4.55000,-100.42000,-4.30000,-5.33000,0.72000,0.25000,0.78000,1.00000,1.00000,0.00000,1.41000,0
0.04000,-0.11000,0.94000,-99.95000,-3.85000,-5.35000,-100.26000,-4.22000,-5.41000,0.31000,0.37000,0.07000,0.00000,1.00000,0.00000,1.00000,0
0.05000,-0.11000,0.93000,-100.90000,-2.55000,-4.65000,-100.31000,-3.93000,-5.40000,-0.59000,1.38000,0.75000,0.00000,1.00000,0.00000,1.00000,0
0.05000,-0.12000,0.94000,-100.55000,-3.70000,-5.45000,-100.31000,-3.89000,-5.31000,-0.24000,0.19000,-0.14000,0.00000,1.00000,0.00000,1.00000,0
0.05000,-0.12000,0.93000,-100.15000,-4.85000,-6.15000,-100.31000,-3.98000,-5.35000,0.16000,-0.87000,-0.80000,0.00000,1.00000,0.00000,1.00000,0
0.06000,-0.11000,0.94000,-101.35000,-4.05000,-5.15000,-100.46000,-4.02000,-5.33000,-0.89000,-0.03000,0.18000,0.00000,1.00000,0.00000,1.00000,0
0.05000,-0.12000,0.94000,-100.20000,-3.80000,-4.80000,-100.44000,-3.99000,-5.22000,0.24000,0.19000,0.41000,0.00000,1.00000,0.00000,1.00000,0
0.05000,-0.11000,0.94000,-101.20000,-4.10000,-6.15000,-100.55000,-3.95000,-5.31000,-0.65000,-0.15000,-0.84000,0.00000,1.00000,0.00000,1.00000,0
0.05000,-0.12000,0.94000,-101.10000,-4.15000,-5.05000,-100.58000,-3.95000,-5.31000,-0.52000,-0.20000,0.26000,0.00000,1.00000,0.00000,1.00000,0
0.05000,-0.12000,0.95000,-99.95000,-4.40000,-6.45000,-100.50000,-3.95000,-5.37000,0.56000,-0.45000,-1.07000,0.00000,1.00000,1.00000,1.41000,0
0.04000,-0.11000,0.94000,-98.95000,-3.40000,-5.10000,-100.43000,-3.89000,-5.43000,1.48000,0.49000,0.33000,1.00000,1.00000,1.00000,1.73000,0
0.04000,-0.12000,0.95000,-100.65000,-3.80000,-5.45000,-100.50000,-3.88000,-5.44000,-0.15000,0.08000,-0.01000,1.00000,1.00000,1.00000,1.73000,0
0.05000,-0.11000,0.94000,-100.25000,-4.20000,-4.95000,-100.44000,-4.05000,-5.47000,0.19000,-0.15000,0.52000,1.00000,0.00000,0.00000,1.00000,0
0.05000,-0.11000,0.94000,-99.65000,-3.45000,-5.20000,-100.35000,-4.02000,-5.45000,0.70000,0.57000,0.25000,2.00000,0.00000,1.00000,2.24000,0
0.05000,-0.11000,0.94000,-101.25000,-5.25000,-4.70000,-100.46000,-4.06000,-5.30000,-0.79000,-1.19000,0.60000,1.00000,1.00000,1.00000,1.73000,0
0.05000,-0.11000,0.94000,-100.80000,-4.10000,-5.05000,-100.40000,-4.06000,-5.29000,-0.40000,-0.04000,0.24000,1.00000,1.00000,1.00000,1.73000,0
0.05000,-0.12000,0.94000,-100.20000,-3.10000,-5.50000,-100.40000,-3.99000,-5.36000,0.20000,0.89000,-0.14000,1.00000,1.00000,1.00000,1.73000,0
0.05000,-0.11000,0.94000,-100.20000,-4.70000,-5.10000,-100.30000,-4.05000,-5.26000,0.10000,-0.64000,0.16000,1.00000,1.00000,1.00000,1.73000,0
0.04000,-0.11000,0.94000,-99.20000,-4.95000,-5.65000,-100.11000,-4.14000,-5.32000,0.91000,-0.81000,-0.34000,2.00000,2.00000,1.00000,3.00000,0
0.05000,-0.12000,0.94000,-99.75000,-3.75000,-5.60000,-100.09000,-4.07000,-5.23000,0.34000,0.32000,-0.37000,2.00000,1.00000,0.00000,2.24000,0
0.05000,-0.11000,0.94000,-100.40000,-3.85000,-4.90000,-100.24000,-4.12000,-5.21000,-0.17000,0.27000,0.31000,2.00000,2.00000,0.00000,2.83000,0
0.05000,-0.11000,0.93000,-100.20000,-4.75000,-5.45000,-100.19000,-4.21000,-5.21000,-0.01000,-0.54000,-0.24000,1.00000,2.00000,0.00000,2.24000,0
0.05000,-0.11000,0.94000,-102.20000,-3.70000,-5.70000,-100.39000,-4.16000,-5.29000,-1.81000,0.46000,-0.41000,2.00000,2.00000,0.00000,2.83000,0
0.05000,-0.12000,0.94000,-101.10000,-3.50000,-5.65000,-100.53000,-4.17000,-5.33000,-0.57000,0.67000,-0.32000,2.00000,2.00000,0.00000,2.83000,0
0.05000,-0.12000,0.94000,-100.20000,-4.65000,-4.40000,-100.43000,-4.11000,-5.30000,0.23000,-0.55000,0.90000,2.00000,1.00000,0.00000,2.24000,0
0.04000,-0.11000,0.94000,-100.65000,-4.00000,-4.65000,-100.41000,-4.10000,-5.26000,-0.24000,0.10000,0.61000,2.00000,0.00000,0.00000,2.00000,0
0.05000,-0.11000,0.93000,-100.65000,-3.60000,-5.95000,-100.46000,-4.14000,-5.31000,-0.19000,0.55000,-0.64000,2.00000,0.00000,0.00000,2.00000,0
0.05000,-0.11000,0.93000,-99.80000,-5.40000,-5.50000,-100.42000,-4.22000,-5.35000,0.61000,-1.18000,-0.15000,2.00000,1.00000,0.00000,2.24000,0
0.05000,-0.12000,0.94000,-101.50000,-2.90000,-6.10000,-100.65000,-4.01000,-5.39000,-0.85000,1.11000,-0.71000,1.00000,2.00000,0.00000,2.24000,0
0.05000,-0.11000,0.94000,-100.05000,-4.25000,-5.30000,-100.68000,-4.06000,-5.36000,0.62000,-0.19000,0.06000,1.00000,2.00000,0.00000,2.24000,0
0.04000,-0.11000,0.93000,-99.05000,-4.50000,-5.80000,-100.54000,-4.12000,-5.45000,1.49000,-0.37000,-0.35000,2.00000,2.00000,1.00000,3.00000,0
0.05000,-0.12000,0.94000,-100.35000,-4.15000,-5.55000,-100.55000,-4.07000,-5.46000,0.20000,-0.09000,-0.09000,2.00000,2.00000,1.00000,3.00000,0
0.05000,-0.12000,0.95000,-102.50000,-4.20000,-5.95000,-100.58000,-4.12000,-5.48000,-1.92000,-0.08000,-0.47000,2.00000,2.00000,1.00000,3.00000,0
